File: Energy-ShortTerm/battery_curve/discharging_df_1.csv
Index,Status,Current(mA),Voltage(V),Capacity(mAh),Energy(Wh),RelaTime(h:min:s.ms),AbsoTime(h:min:s.ms)
15788,Discharging,-967.2,16.2549,0.241722,0.00394106,0:00:01.000,2005-01-01 23:22:54
15839,Discharging,-967.2,16.2326,13.94675,0.226517,0:00:52.000,2005-01-01 23:23:45
15890,Discharging,-967.2,16.2227,27.6511,0.448895,0:01:43.000,2005-01-01 23:24:36
15941,Discharging,-967.2,16.2152,41.3564,0.671175,0:02:34.000,2005-01-01 23:25:27
15992,Discharging,-967.2,16.2103,55.06125,0.893371,0:03:25.000,2005-01-01 23:26:18
16043,Discharging,-967.2,16.2053,68.7667,1.115508,0:04:16.000,2005-01-01 23:27:09
16094,Discharging,-967.2,16.2003,82.4713,1.337574,0:05:07.000,2005-01-01 23:28:00
16145,Discharging,-967.2,16.1979,96.1766,1.5596,0:05:58.000,2005-01-01 23:28:51
16196,Discharging,-967.2,16.1954,109.882,1.78156,0:06:49.000,2005-01-01 23:29:42
16247,Discharging,-967.2,16.1904,123.587,2.00345,0:07:40.000,2005-01-01 23:30:33
16298,Discharging,-967.2,16.1879,137.292,2.225288,0:08:31.000,2005-01-01 23:31:24
16349,Discharging,-967.2,16.183,150.997,2.44712,0:09:22.000,2005-01-01 23:32:15
16400,Discharging,-967.2,16.1805,164.7,2.668876,0:10:13.000,2005-01-01 23:33:06
16451,Discharging,-967.2,16.178,178.405,2.89059,0:11:04.000,2005-01-01 23:33:57
16502,Discharging,-967.2,16.1731,192.11,3.1123,0:11:55.000,2005-01-01 23:34:48
16553,Discharging,-967.2,16.1706,205.815,3.333904,0:12:46.000,2005-01-01 23:35:39
16604,Discharging,-967.2,16.1681,219.52,3.55549,0:13:37.000,2005-01-01 23:36:30
16655,Discharging,-967.2,16.1681,233.226,3.7771,0:14:28.000,2005-01-01 23:37:21
16706,Discharging,-967.2,16.1656,246.924,3.99856,0:15:19.000,2005-01-01 23:38:12
16757,Discharging,-965.4,16.1607,260.609,4.21979,0:16:10.000,2005-01-01 23:39:03
16808,Discharging,-965.4,16.1557,274.292,4.44094,0:17:01.000,2005-01-01 23:39:54
16859,Discharging,-967.2,16.1532,287.975,4.66196,0:17:52.000,2005-01-01 23:40:45
16910,Discharging,-965.4,16.1483,301.659,4.882924,0:18:43.000,2005-01-01 23:41:36
16961,Discharging,-965.4,16.1458,315.342,5.10387,0:19:34.000,2005-01-01 23:42:27
17012,Discharging,-967.2,16.1433,329.026,5.32485,0:20:25.000,2005-01-01 23:43:18
17063,Discharging,-965.4,16.1383,342.71,5.54575,0:21:16.000,2005-01-01 23:44:09
17114,Discharging,-965.4,16.1359,356.393,5.76655,0:22:07.000,2005-01-01 23:45:00
17165,Discharging,-965.4,16.1309,370.077,5.98726,0:22:58.000,2005-01-01 23:45:51
17216,Discharging,-965.4,16.1284,383.76,6.20798,0:23:49.000,2005-01-01 23:46:42
17267,Discharging,-965.4,16.1235,397.443,6.42866,0:24:40.000,2005-01-01 23:47:33
17318,Discharging,-965.4,16.1185,411.126,6.64928,0:25:31.000,2005-01-01 23:48:24
17369,Discharging,-965.4,16.116,424.809,6.86974,0:26:22.000,2005-01-01 23:49:15
17420,Discharging,-965.4,16.1111,438.492,7.09019,0:27:13.000,2005-01-01 23:50:06
17471,Discharging,-965.4,16.1061,452.1745,7.31062,0:28:04.000,2005-01-01 23:50:57
17522,Discharging,-965.4,16.1036,465.858,7.53102,0:28:55.000,2005-01-01 23:51:48
17573,Discharging,-967.2,16.0962,479.541,7.75133,0:29:46.000,2005-01-01 23:52:39
17624,Discharging,-965.4,16.0937,493.225,7.97155,0:30:37.000,2005-01-01 23:53:30
17675,Discharging,-967.2,16.0887,506.911,8.19157,0:31:28.000,2005-01-01 23:54:21
17726,Discharging,-967.2,16.0838,520.6,8.41158,0:32:19.000,2005-01-01 23:55:12
17777,Discharging,-965.4,16.0788,534.287,8.63154,0:33:10.000,2005-01-01 23:56:03
17828,Discharging,-963.5,16.0739,547.977,8.85156,0:34:01.000,2005-01-01 23:56:54
17879,Discharging,-965.4,16.0664,561.666,9.07154,0:34:52.000,2005-01-01 23:57:45
17930,Discharging,-967.2,16.0615,575.3545,9.29152,0:35:43.000,2005-01-01 23:58:36
17981,Discharging,-965.4,16.0565,589.043,9.51133,0:36:34.000,2005-01-01 23:59:27
18032,Discharging,-965.4,16.0491,602.731,9.73084,0:37:25.000,2005-01-02 00:00:18
18083,Discharging,-965.4,16.0441,616.42,9.95035,0:38:16.000,2005-01-02 00:01:09
18134,Discharging,-967.2,16.0391,630.12,10.17,0:39:07.000,2005-01-02 00:02:00
18185,Discharging,-967.2,16.0292,643.828,10.3899,0:39:58.000,2005-01-02 00:02:51
18236,Discharging,-967.2,16.0243,657.539,10.6096,0:40:49.000,2005-01-02 00:03:42
18287,Discharging,-970.9,16.0193,671.25,10.8291,0:41:40.000,2005-01-02 00:04:33
18338,Discharging,-967.2,16.0119,684.962,11.0485,0:42:31.000,2005-01-02 00:05:24
18389,Discharging,-967.2,16.0069,698.673,11.2679,0:43:22.000,2005-01-02 00:06:15
18440,Discharging,-967.2,15.9995,712.385,11.4873,0:44:13.000,2005-01-02 00:07:06
18491,Discharging,-970.9,15.9945,726.096,11.7067,0:45:04.000,2005-01-02 00:07:57
18542,Discharging,-967.2,15.9895,739.806,11.92588,0:45:55.000,2005-01-02 00:08:48
18593,Discharging,-967.2,15.9821,753.517,12.1448,0:46:46.000,2005-01-02 00:09:39
18644,Discharging,-967.2,15.9771,767.228,12.3637,0:47:37.000,2005-01-02 00:10:30
18695,Discharging,-967.2,15.9697,780.938,12.5826,0:48:28.000,2005-01-02 00:11:21
18746,Discharging,-967.2,15.9623,794.649,12.8015,0:49:19.000,2005-01-02 00:12:12
18797,Discharging,-967.2,15.9573,808.36,13.0204,0:50:10.000,2005-01-02 00:13:03
18848,Discharging,-967.2,15.9523,822.0705,13.2389,0:51:01.000,2005-01-02 00:13:54
18899,Discharging,-967.2,15.9424,835.782,13.4574,0:51:52.000,2005-01-02 00:14:45
18950,Discharging,-970.9,15.935,849.494,13.6758,0:52:43.000,2005-01-02 00:15:36
19001,Discharging,-967.2,15.93,863.204,13.8942,0:53:34.000,2005-01-02 00:16:27
19052,Discharging,-967.2,15.9226,876.915,14.1126,0:54:25.000,2005-01-02 00:17:18
19103,Discharging,-967.2,15.9176,890.626,14.3307,0:55:16.000,2005-01-02 00:18:09
19154,Discharging,-967.2,15.9102,904.3375,14.5486,0:56:07.000,2005-01-02 00:19:00
19205,Discharging,-970.9,15.9027,918.049,14.7666,0:56:58.000,2005-01-02 00:19:51
19256,Discharging,-967.2,15.8978,931.76,14.9845,0:57:49.000,2005-01-02 00:20:42
19307,Discharging,-965.4,15.8903,945.471,15.2025,0:58:40.000,2005-01-02 00:21:33
19358,Discharging,-967.2,15.8854,959.182,15.4204,0:59:31.000,2005-01-02 00:22:24
19409,Discharging,-967.2,15.8779,972.893,15.6378,1:00:22.000,2005-01-02 00:23:15
19460,Discharging,-967.2,15.8705,986.604,15.8553,1:01:13.000,2005-01-02 00:24:06
19511,Discharging,-967.2,15.8655,1000.32,16.0726,1:02:04.000,2005-01-02 00:24:57
19562,Discharging,-967.2,15.8581,1014,16.2896,1:02:55.000,2005-01-02 00:25:48
19613,Discharging,-967.2,15.8556,1027.68,16.5066,1:03:46.000,2005-01-02 00:26:39
19664,Discharging,-967.2,15.8482,1041.36,16.7235,1:04:37.000,2005-01-02 00:27:30
19715,Discharging,-965.4,15.8382,1055.04,16.9404,1:05:28.000,2005-01-02 00:28:21
19766,Discharging,-965.4,15.8308,1068.72,17.1573,1:06:19.000,2005-01-02 00:29:12
19817,Discharging,-965.4,15.8258,1082.396,17.3742,1:07:10.000,2005-01-02 00:30:03
19868,Discharging,-967.2,15.8184,1096.08,17.5905,1:08:01.000,2005-01-02 00:30:54
19919,Discharging,-965.4,15.8134,1109.75,17.8067,1:08:52.000,2005-01-02 00:31:45
19970,Discharging,-967.2,15.806,1123.43,18.023,1:09:43.000,2005-01-02 00:32:36
20021,Discharging,-965.4,15.801,1137.11,18.2392,1:10:34.000,2005-01-02 00:33:27
20072,Discharging,-967.2,15.7936,1150.79,18.4553,1:11:25.000,2005-01-02 00:34:18
20123,Discharging,-967.2,15.7886,1164.47,18.6713,1:12:16.000,2005-01-02 00:35:09
20174,Discharging,-965.4,15.7812,1178.15,18.8872,1:13:07.000,2005-01-02 00:36:00
20225,Discharging,-965.4,15.7738,1191.83,19.1032,1:13:58.000,2005-01-02 00:36:51
20276,Discharging,-967.2,15.7688,1205.51,19.3191,1:14:49.000,2005-01-02 00:37:42
20327,Discharging,-965.4,15.7614,1219.19,19.535,1:15:40.000,2005-01-02 00:38:33
20378,Discharging,-967.2,15.7564,1232.87,19.7509,1:16:31.000,2005-01-02 00:39:24
20429,Discharging,-965.4,15.749,1246.55,19.9663,1:17:22.000,2005-01-02 00:40:15
20480,Discharging,-965.4,15.744,1260.23,20.1815,1:18:13.000,2005-01-02 00:41:06
20531,Discharging,-967.2,15.7341,1273.91,20.3968,1:19:04.000,2005-01-02 00:41:57
20582,Discharging,-965.4,15.7291,1287.59,20.612,1:19:55.000,2005-01-02 00:42:48
20633,Discharging,-967.2,15.7217,1301.265,20.8272,1:20:46.000,2005-01-02 00:43:39
20684,Discharging,-965.4,15.7167,1314.94,21.0422,1:21:37.000,2005-01-02 00:44:30
20735,Discharging,-965.4,15.7118,1328.62,21.2571,1:22:28.000,2005-01-02 00:45:21
20786,Discharging,-967.2,15.7043,1342.3,21.4721,1:23:19.000,2005-01-02 00:46:12
20837,Discharging,-965.4,15.6994,1355.98,21.6871,1:24:10.000,2005-01-02 00:47:03
20888,Discharging,-967.2,15.6919,1369.66,21.902,1:25:01.000,2005-01-02 00:47:54
20939,Discharging,-967.2,15.687,1383.341,22.117,1:25:52.000,2005-01-02 00:48:45
20990,Discharging,-965.4,15.6795,1397.02,22.3316,1:26:43.000,2005-01-02 00:49:36
21041,Discharging,-967.2,15.677,1410.7,22.5462,1:27:34.000,2005-01-02 00:50:27
21092,Discharging,-967.2,15.6671,1424.38,22.761,1:28:25.000,2005-01-02 00:51:18
21143,Discharging,-967.2,15.6597,1438.06,22.976,1:29:16.000,2005-01-02 00:52:09
21194,Discharging,-967.2,15.6547,1451.74,23.1909,1:30:07.000,2005-01-02 00:53:00
21245,Discharging,-967.2,15.6473,1465.43,23.4051,1:30:58.000,2005-01-02 00:53:51
21296,Discharging,-967.2,15.6423,1479.11,23.6191,1:31:49.000,2005-01-02 00:54:42
21347,Discharging,-967.2,15.6374,1492.79,23.8332,1:32:40.000,2005-01-02 00:55:33
21398,Discharging,-967.2,15.6274,1506.48,24.0473,1:33:31.000,2005-01-02 00:56:24
21449,Discharging,-967.2,15.6225,1520.16,24.2613,1:34:22.000,2005-01-02 00:57:15
21500,Discharging,-967.2,15.6175,1533.84,24.4754,1:35:13.000,2005-01-02 00:58:06
21551,Discharging,-967.2,15.6101,1547.52,24.6894,1:36:04.000,2005-01-02 00:58:57
21602,Discharging,-967.2,15.6051,1561.206,24.9035,1:36:55.000,2005-01-02 00:59:48
21653,Discharging,-967.2,15.6001,1574.89,25.1175,1:37:46.000,2005-01-02 01:00:39
21704,Discharging,-967.2,15.5952,1588.57,25.3316,1:38:37.000,2005-01-02 01:01:30
21755,Discharging,-967.2,15.5877,1602.25,25.5456,1:39:28.000,2005-01-02 01:02:21
21806,Discharging,-967.2,15.5828,1615.94,25.7596,1:40:19.000,2005-01-02 01:03:12
21857,Discharging,-970.9,15.5778,1629.62,25.9726,1:41:10.000,2005-01-02 01:04:03
21908,Discharging,-967.2,15.5729,1643.3,26.1858,1:42:01.000,2005-01-02 01:04:54
21959,Discharging,-967.2,15.5679,1656.985,26.3988,1:42:52.000,2005-01-02 01:05:45
22010,Discharging,-967.2,15.5629,1670.67,26.6119,1:43:43.000,2005-01-02 01:06:36
22061,Discharging,-967.2,15.558,1684.35,26.825,1:44:34.000,2005-01-02 01:07:27
22112,Discharging,-967.2,15.5505,1698.034,27.0381,1:45:25.000,2005-01-02 01:08:18
22163,Discharging,-967.2,15.5456,1711.72,27.2512,1:46:16.000,2005-01-02 01:09:09
22214,Discharging,-967.2,15.5406,1725.4,27.4643,1:47:07.000,2005-01-02 01:10:00
22265,Discharging,-965.4,15.5357,1739.08,27.6773,1:47:58.000,2005-01-02 01:10:51
22316,Discharging,-967.2,15.5307,1752.76,27.8904,1:48:49.000,2005-01-02 01:11:42
22367,Discharging,-967.2,15.5233,1766.45,28.1035,1:49:40.000,2005-01-02 01:12:33
22418,Discharging,-967.2,15.5183,1780.13,28.3165,1:50:31.000,2005-01-02 01:13:24
22469,Discharging,-967.2,15.5133,1793.81,28.5295,1:51:22.000,2005-01-02 01:14:15
22520,Discharging,-967.2,15.5109,1807.49,28.742,1:52:13.000,2005-01-02 01:15:06
22571,Discharging,-965.4,15.5059,1821.17,28.9541,1:53:04.000,2005-01-02 01:15:57
22622,Discharging,-965.4,15.5009,1834.85,29.1661,1:53:55.000,2005-01-02 01:16:48
22673,Discharging,-965.4,15.496,1848.53,29.3782,1:54:46.000,2005-01-02 01:17:39
22724,Discharging,-963.5,15.491,1862.211,29.5902,1:55:37.000,2005-01-02 01:18:30
22775,Discharging,-965.4,15.4861,1875.89,29.8022,1:56:28.000,2005-01-02 01:19:21
22826,Discharging,-967.2,15.4811,1889.57,30.0143,1:57:19.000,2005-01-02 01:20:12
22877,Discharging,-965.4,15.4761,1903.25,30.2263,1:58:10.000,2005-01-02 01:21:03
22928,Discharging,-965.4,15.4712,1916.928,30.4383,1:59:01.000,2005-01-02 01:21:54
22979,Discharging,-965.4,15.4662,1930.61,30.6498,1:59:52.000,2005-01-02 01:22:45
23030,Discharging,-965.4,15.4613,1944.29,30.8611,2:00:43.000,2005-01-02 01:23:36
23081,Discharging,-965.4,15.4563,1957.97,31.0725,2:01:34.000,2005-01-02 01:24:27
23132,Discharging,-967.2,15.4513,1971.65,31.2838,2:02:25.000,2005-01-02 01:25:18
23183,Discharging,-967.2,15.4464,1985.32,31.4952,2:03:16.000,2005-01-02 01:26:09
23234,Discharging,-965.4,15.4389,1999,31.7066,2:04:07.000,2005-01-02 01:27:00
23285,Discharging,-965.4,15.434,2012.66,31.9177,2:04:58.000,2005-01-02 01:27:51
23336,Discharging,-967.2,15.4315,2026.32,32.1285,2:05:49.000,2005-01-02 01:28:42
23387,Discharging,-967.2,15.4241,2039.96,32.3391,2:06:40.000,2005-01-02 01:29:33
23438,Discharging,-967.2,15.4191,2053.62,32.54976,2:07:31.000,2005-01-02 01:30:24
23489,Discharging,-965.4,15.4117,2067.266,32.7604,2:08:22.000,2005-01-02 01:31:15
23540,Discharging,-967.2,15.4067,2080.918,32.971,2:09:13.000,2005-01-02 01:32:06
23591,Discharging,-965.4,15.4017,2094.57,33.1813,2:10:04.000,2005-01-02 01:32:57
23642,Discharging,-967.2,15.3968,2108.22,33.3914,2:10:55.000,2005-01-02 01:33:48
23693,Discharging,-965.4,15.3918,2121.87,33.6015,2:11:46.000,2005-01-02 01:34:39
23744,Discharging,-967.2,15.3869,2135.53,33.8116,2:12:37.000,2005-01-02 01:35:30
23795,Discharging,-965.4,15.3794,2149.18,34.0217,2:13:28.000,2005-01-02 01:36:21
23846,Discharging,-965.4,15.3745,2162.83,34.2319,2:14:19.000,2005-01-02 01:37:12
23897,Discharging,-965.4,15.3695,2176.49,34.442,2:15:10.000,2005-01-02 01:38:03
23948,Discharging,-967.2,15.3645,2190.16,34.6521,2:16:01.000,2005-01-02 01:38:54
23999,Discharging,-967.2,15.3571,2203.87,34.8623,2:16:52.000,2005-01-02 01:39:45
24050,Discharging,-967.2,15.3497,2217.61,35.0725,2:17:43.000,2005-01-02 01:40:36
24101,Discharging,-967.2,15.3447,2231.35,35.2827,2:18:34.000,2005-01-02 01:41:27
24152,Discharging,-967.2,15.3373,2245.09,35.4928,2:19:25.000,2005-01-02 01:42:18
24203,Discharging,-967.2,15.3323,2258.82,35.7029,2:20:16.000,2005-01-02 01:43:09
24254,Discharging,-967.2,15.3249,2272.56,35.913,2:21:07.000,2005-01-02 01:44:00
24305,Discharging,-967.2,15.3199,2286.3,36.1231,2:21:58.000,2005-01-02 01:44:51
24356,Discharging,-967.2,15.31,2300.04,36.3332,2:22:49.000,2005-01-02 01:45:42
24407,Discharging,-967.2,15.305,2313.78,36.5433,2:23:40.000,2005-01-02 01:46:33
24458,Discharging,-967.2,15.2976,2327.51,36.7535,2:24:31.000,2005-01-02 01:47:24
24509,Discharging,-967.2,15.2926,2341.25,36.9636,2:25:22.000,2005-01-02 01:48:15
24560,Discharging,-970.9,15.2852,2354.99,37.1737,2:26:13.000,2005-01-02 01:49:06
24611,Discharging,-967.2,15.2777,2368.73,37.3837,2:27:04.000,2005-01-02 01:49:57
24662,Discharging,-967.2,15.2728,2382.46,37.5938,2:27:55.000,2005-01-02 01:50:48
24713,Discharging,-967.2,15.2653,2396.2,37.8039,2:28:46.000,2005-01-02 01:51:39
24764,Discharging,-967.2,15.2604,2409.94,38.0127,2:29:37.000,2005-01-02 01:52:30
24815,Discharging,-967.2,15.2529,2423.68,38.2209,2:30:28.000,2005-01-02 01:53:21
24866,Discharging,-967.2,15.2455,2437.418,38.4292,2:31:19.000,2005-01-02 01:54:12
24917,Discharging,-967.2,15.2405,2451.16,38.6375,2:32:10.000,2005-01-02 01:55:03
24968,Discharging,-970.9,15.2331,2464.89,38.8457,2:33:01.000,2005-01-02 01:55:54
25019,Discharging,-967.2,15.2256,2478.63,39.054,2:33:52.000,2005-01-02 01:56:45
25070,Discharging,-967.2,15.2207,2492.37,39.2623,2:34:43.000,2005-01-02 01:57:36
25121,Discharging,-967.2,15.2132,2506.1,39.4706,2:35:34.000,2005-01-02 01:58:27
25172,Discharging,-967.2,15.2033,2519.84,39.6788,2:36:25.000,2005-01-02 01:59:18
25223,Discharging,-967.2,15.1984,2533.58,39.887,2:37:16.000,2005-01-02 02:00:09
25274,Discharging,-967.2,15.1909,2547.32,40.0952,2:38:07.000,2005-01-02 02:01:00
25325,Discharging,-967.2,15.1835,2561.05,40.3033,2:38:58.000,2005-01-02 02:01:51
25376,Discharging,-967.2,15.1785,2574.79,40.5115,2:39:49.000,2005-01-02 02:02:42
25427,Discharging,-967.2,15.176,2588.51,40.71968,2:40:40.000,2005-01-02 02:03:33
25478,Discharging,-965.4,15.1661,2602.2,40.9278,2:41:31.000,2005-01-02 02:04:24
25529,Discharging,-967.2,15.1612,2615.85,41.1359,2:42:22.000,2005-01-02 02:05:15
25580,Discharging,-965.4,15.1562,2629.5,41.3441,2:43:13.000,2005-01-02 02:06:06
25631,Discharging,-965.4,15.1512,2643.15,41.5521,2:44:04.000,2005-01-02 02:06:57
25682,Discharging,-965.4,15.1438,2656.81,41.7589,2:44:55.000,2005-01-02 02:07:48
25733,Discharging,-967.2,15.1388,2670.46,41.9657,2:45:46.000,2005-01-02 02:08:39
25784,Discharging,-965.4,15.1314,2684.11,42.1724,2:46:37.000,2005-01-02 02:09:30
25835,Discharging,-965.4,15.1264,2697.76,42.3791,2:47:28.000,2005-01-02 02:10:21
25886,Discharging,-965.4,15.119,2711.41,42.5855,2:48:19.000,2005-01-02 02:11:12
25937,Discharging,-967.2,15.114,2725.06,42.7918,2:49:10.000,2005-01-02 02:12:03
25988,Discharging,-965.4,15.1066,2738.71,42.998,2:50:01.000,2005-01-02 02:12:54
26039,Discharging,-965.4,15.0992,2752.36,43.2042,2:50:52.000,2005-01-02 02:13:45
26090,Discharging,-967.2,15.0942,2766.01,43.4104,2:51:43.000,2005-01-02 02:14:36
26141,Discharging,-967.2,15.0868,2779.66,43.6167,2:52:34.000,2005-01-02 02:15:27
26192,Discharging,-967.2,15.0818,2793.31,43.8229,2:53:25.000,2005-01-02 02:16:18
26243,Discharging,-965.4,15.0744,2806.97,44.0291,2:54:16.000,2005-01-02 02:17:09
26294,Discharging,-965.4,15.0694,2820.62,44.2353,2:55:07.000,2005-01-02 02:18:00
26345,Discharging,-965.4,15.0644,2834.27,44.4416,2:55:58.000,2005-01-02 02:18:51
26396,Discharging,-965.4,15.0595,2847.92,44.6478,2:56:49.000,2005-01-02 02:19:42
26447,Discharging,-965.4,15.052,2861.58,44.854,2:57:40.000,2005-01-02 02:20:33
26498,Discharging,-965.4,15.0471,2875.23,45.0602,2:58:31.000,2005-01-02 02:21:24
26549,Discharging,-965.4,15.0421,2888.88,45.2664,2:59:22.000,2005-01-02 02:22:15
26600,Discharging,-965.4,15.0347,2902.53,45.4727,3:00:13.000,2005-01-02 02:23:06
26651,Discharging,-967.2,15.0297,2916.18,45.6788,3:01:04.000,2005-01-02 02:23:57
26702,Discharging,-965.4,15.0223,2929.84,45.885,3:01:55.000,2005-01-02 02:24:48
26753,Discharging,-967.2,15.0173,2943.49,46.0912,3:02:46.000,2005-01-02 02:25:39
26804,Discharging,-965.4,15.0124,2957.14,46.2974,3:03:37.000,2005-01-02 02:26:30
26855,Discharging,-965.4,15.0074,2970.8,46.503,3:04:28.000,2005-01-02 02:27:21
26906,Discharging,-967.2,14.9975,2984.5,46.7085,3:05:19.000,2005-01-02 02:28:12
26957,Discharging,-967.2,14.99,2998.23,46.9147,3:06:10.000,2005-01-02 02:29:03
27008,Discharging,-967.2,14.9851,3011.97,47.1209,3:07:01.000,2005-01-02 02:29:54
27059,Discharging,-967.2,14.9776,3025.71,47.3266,3:07:52.000,2005-01-02 02:30:45
27110,Discharging,-967.2,14.9727,3039.45,47.531,3:08:43.000,2005-01-02 02:31:36
27161,Discharging,-967.2,14.9652,3053.18,47.7353,3:09:34.000,2005-01-02 02:32:27
27212,Discharging,-967.2,14.9603,3066.924,47.9397,3:10:25.000,2005-01-02 02:33:18
27263,Discharging,-967.2,14.9528,3080.664,48.1441,3:11:16.000,2005-01-02 02:34:09
27314,Discharging,-967.2,14.9479,3094.4,48.3484,3:12:07.000,2005-01-02 02:35:00
27365,Discharging,-967.2,14.9429,3108.14,48.5528,3:12:58.000,2005-01-02 02:35:51
27416,Discharging,-967.2,14.9355,3121.87,48.7572,3:13:49.000,2005-01-02 02:36:42
27467,Discharging,-970.9,14.9305,3135.61,48.9616,3:14:40.000,2005-01-02 02:37:33
27518,Discharging,-967.2,14.9231,3149.35,49.166,3:15:31.000,2005-01-02 02:38:24
27569,Discharging,-967.2,14.9181,3163.08,49.3703,3:16:22.000,2005-01-02 02:39:15
27620,Discharging,-967.2,14.9131,3176.82,49.57456,3:17:13.000,2005-01-02 02:40:06
27671,Discharging,-967.2,14.9082,3190.55,49.7788,3:18:04.000,2005-01-02 02:40:57
27722,Discharging,-967.2,14.9007,3204.29,49.9831,3:18:55.000,2005-01-02 02:41:48
27773,Discharging,-967.2,14.8908,3218.02,50.1874,3:19:46.000,2005-01-02 02:42:39
27824,Discharging,-967.2,14.8859,3231.76,50.3917,3:20:37.000,2005-01-02 02:43:30
27875,Discharging,-967.2,14.8809,3245.49,50.5959,3:21:28.000,2005-01-02 02:44:21
27926,Discharging,-967.2,14.8735,3259.23,50.8002,3:22:19.000,2005-01-02 02:45:12
27977,Discharging,-967.2,14.8685,3272.97,51.0045,3:23:10.000,2005-01-02 02:46:03
28028,Discharging,-970.9,14.8635,3286.702,51.2088,3:24:01.000,2005-01-02 02:46:54
28079,Discharging,-967.2,14.8561,3300.44,51.413,3:24:52.000,2005-01-02 02:47:45
28130,Discharging,-967.2,14.8511,3314.18,51.6172,3:25:43.000,2005-01-02 02:48:36
28181,Discharging,-965.4,14.8437,3327.91,51.8214,3:26:34.000,2005-01-02 02:49:27
28232,Discharging,-967.2,14.8387,3341.65,52.0256,3:27:25.000,2005-01-02 02:50:18
28283,Discharging,-967.2,14.8338,3355.38,52.2285,3:28:16.000,2005-01-02 02:51:09
28334,Discharging,-967.2,14.8313,3369.11,52.431,3:29:07.000,2005-01-02 02:52:00
28385,Discharging,-965.4,14.8239,3382.81,52.6334,3:29:58.000,2005-01-02 02:52:51
28436,Discharging,-965.4,14.8189,3396.47,52.8357,3:30:49.000,2005-01-02 02:53:42
28487,Discharging,-965.4,14.8115,3410.13,53.038,3:31:40.000,2005-01-02 02:54:33
28538,Discharging,-965.4,14.8065,3423.78,53.2404,3:32:31.000,2005-01-02 02:55:24
28589,Discharging,-965.4,14.8015,3437.44,53.44272,3:33:22.000,2005-01-02 02:56:15
28640,Discharging,-965.4,14.7941,3451.09,53.6451,3:34:13.000,2005-01-02 02:57:06
28691,Discharging,-965.4,14.7867,3464.75,53.8474,3:35:04.000,2005-01-02 02:57:57
28742,Discharging,-965.4,14.7817,3478.41,54.0497,3:35:55.000,2005-01-02 02:58:48
28793,Discharging,-965.4,14.7743,3492.06,54.2521,3:36:46.000,2005-01-02 02:59:39
28844,Discharging,-965.4,14.7693,3505.71,54.4544,3:37:37.000,2005-01-02 03:00:30
28895,Discharging,-967.2,14.7643,3519.37,54.6567,3:38:28.000,2005-01-02 03:01:21
28946,Discharging,-965.4,14.7594,3533.02,54.8591,3:39:19.000,2005-01-02 03:02:12
28997,Discharging,-965.4,14.7519,3546.68,55.0614,3:40:10.000,2005-01-02 03:03:03
29048,Discharging,-965.4,14.747,3560.33,55.2636,3:41:01.000,2005-01-02 03:03:54
29099,Discharging,-965.4,14.742,3573.984,55.4659,3:41:52.000,2005-01-02 03:04:45
29150,Discharging,-965.4,14.7346,3587.64,55.6681,3:42:43.000,2005-01-02 03:05:36
29201,Discharging,-965.4,14.7296,3601.29,55.8703,3:43:34.000,2005-01-02 03:06:27
29252,Discharging,-965.4,14.7247,3614.94,56.0726,3:44:25.000,2005-01-02 03:07:18
29303,Discharging,-965.4,14.7197,3628.6,56.2738,3:45:16.000,2005-01-02 03:08:09
29354,Discharging,-965.4,14.7147,3642.25,56.4748,3:46:07.000,2005-01-02 03:09:00
29405,Discharging,-965.4,14.7098,3655.91,56.6758,3:46:58.000,2005-01-02 03:09:51
29456,Discharging,-965.4,14.7023,3669.57,56.8768,3:47:49.000,2005-01-02 03:10:42
29507,Discharging,-965.4,14.6974,3683.22,57.0778,3:48:40.000,2005-01-02 03:11:33
29558,Discharging,-963.5,14.6924,3696.88,57.2784,3:49:31.000,2005-01-02 03:12:24
29609,Discharging,-967.2,14.685,3710.54,57.4787,3:50:22.000,2005-01-02 03:13:15
29660,Discharging,-965.4,14.6775,3724.19,57.6791,3:51:13.000,2005-01-02 03:14:06
29711,Discharging,-965.4,14.6726,3737.85,57.8795,3:52:04.000,2005-01-02 03:14:57
29762,Discharging,-967.2,14.6701,3751.51,58.0799,3:52:55.000,2005-01-02 03:15:48
29813,Discharging,-967.2,14.6626,3765.208,58.2804,3:53:46.000,2005-01-02 03:16:39
29864,Discharging,-967.2,14.6552,3778.94,58.4808,3:54:37.000,2005-01-02 03:17:30
29915,Discharging,-970.9,14.6478,3792.68,58.6813,3:55:28.000,2005-01-02 03:18:21
29966,Discharging,-970.9,14.6453,3806.41,58.8818,3:56:19.000,2005-01-02 03:19:12
30017,Discharging,-967.2,14.6378,3820.15,59.0823,3:57:10.000,2005-01-02 03:20:03
30068,Discharging,-967.2,14.6329,3833.88,59.2827,3:58:01.000,2005-01-02 03:20:54
30119,Discharging,-967.2,14.6279,3847.62,59.4831,3:58:52.000,2005-01-02 03:21:45
30170,Discharging,-965.4,14.623,3861.35,59.6835,3:59:43.000,2005-01-02 03:22:36
30221,Discharging,-967.2,14.618,3875.09,59.8838,4:00:34.000,2005-01-02 03:23:27
30272,Discharging,-967.2,14.6106,3888.82,60.0842,4:01:25.000,2005-01-02 03:24:18
30323,Discharging,-967.2,14.6056,3902.56,60.2846,4:02:16.000,2005-01-02 03:25:09
30374,Discharging,-967.2,14.6006,3916.29,60.485,4:03:07.000,2005-01-02 03:26:00
30425,Discharging,-967.2,14.5957,3930.03,60.6854,4:03:58.000,2005-01-02 03:26:51
30476,Discharging,-967.2,14.5932,3943.77,60.8858,4:04:49.000,2005-01-02 03:27:42
30527,Discharging,-967.2,14.5858,3957.504,61.0862,4:05:40.000,2005-01-02 03:28:33
30578,Discharging,-965.4,14.5808,3971.24,61.2866,4:06:31.000,2005-01-02 03:29:24
30629,Discharging,-967.2,14.5734,3984.97,61.4869,4:07:22.000,2005-01-02 03:30:15
30680,Discharging,-967.2,14.5684,3998.71,61.6872,4:08:13.000,2005-01-02 03:31:06
30731,Discharging,-967.2,14.5634,4012.35,61.8875,4:09:04.000,2005-01-02 03:31:57
30782,Discharging,-967.2,14.5585,4025.99,62.0879,4:09:55.000,2005-01-02 03:32:48
30833,Discharging,-967.2,14.5535,4039.62,62.2881,4:10:46.000,2005-01-02 03:33:39
30884,Discharging,-967.2,14.5486,4053.25,62.4867,4:11:37.000,2005-01-02 03:34:30
30935,Discharging,-967.2,14.5461,4066.88,62.6852,4:12:28.000,2005-01-02 03:35:21
30986,Discharging,-967.2,14.5411,4080.51,62.8837,4:13:19.000,2005-01-02 03:36:12
31037,Discharging,-967.2,14.5362,4094.14,63.0823,4:14:10.000,2005-01-02 03:37:03
31088,Discharging,-967.2,14.5312,4107.77,63.2808,4:15:01.000,2005-01-02 03:37:54
31139,Discharging,-965.4,14.5262,4121.41,63.4794,4:15:52.000,2005-01-02 03:38:45
31190,Discharging,-967.2,14.5213,4135.03,63.6779,4:16:43.000,2005-01-02 03:39:36
31241,Discharging,-965.4,14.5213,4148.66,63.8764,4:17:34.000,2005-01-02 03:40:27
31292,Discharging,-965.4,14.5163,4162.284,64.0749,4:18:25.000,2005-01-02 03:41:18
31343,Discharging,-963.5,14.5114,4175.904,64.2733,4:19:16.000,2005-01-02 03:42:09
31394,Discharging,-965.4,14.5064,4189.52,64.4718,4:20:07.000,2005-01-02 03:43:00
31445,Discharging,-965.4,14.5014,4203.14,64.6702,4:20:58.000,2005-01-02 03:43:51
31496,Discharging,-965.4,14.499,4216.76,64.8686,4:21:49.000,2005-01-02 03:44:42
31547,Discharging,-965.4,14.494,4230.38,65.0671,4:22:40.000,2005-01-02 03:45:33
31598,Discharging,-967.2,14.489,4244,65.2655,4:23:31.000,2005-01-02 03:46:24
31649,Discharging,-965.4,14.4866,4257.62,65.464,4:24:22.000,2005-01-02 03:47:15
31700,Discharging,-965.4,14.4816,4271.24,65.6624,4:25:13.000,2005-01-02 03:48:06
31751,Discharging,-965.4,14.4766,4284.85,65.8608,4:26:04.000,2005-01-02 03:48:57
31802,Discharging,-965.4,14.4742,4298.47,66.0593,4:26:55.000,2005-01-02 03:49:48
31853,Discharging,-965.4,14.4667,4312.09,66.2577,4:27:46.000,2005-01-02 03:50:39
31904,Discharging,-965.4,14.4642,4325.71,66.4562,4:28:37.000,2005-01-02 03:51:30
31955,Discharging,-965.4,14.4593,4339.33,66.6546,4:29:28.000,2005-01-02 03:52:21
32006,Discharging,-967.2,14.4543,4352.95,66.853,4:30:19.000,2005-01-02 03:53:12
32057,Discharging,-965.4,14.4518,4366.57,67.0515,4:31:10.000,2005-01-02 03:54:03
32108,Discharging,-965.4,14.4469,4380.19,67.2499,4:32:01.000,2005-01-02 03:54:54
32159,Discharging,-967.2,14.4444,4393.804,67.4484,4:32:52.000,2005-01-02 03:55:45
32210,Discharging,-965.4,14.4394,4407.42,67.6468,4:33:43.000,2005-01-02 03:56:36
32261,Discharging,-965.4,14.437,4421.04,67.8452,4:34:34.000,2005-01-02 03:57:27
32312,Discharging,-965.4,14.432,4434.66,68.0437,4:35:25.000,2005-01-02 03:58:18
32363,Discharging,-963.5,14.427,4448.28,68.2421,4:36:16.000,2005-01-02 03:59:09
32414,Discharging,-965.4,14.4246,4461.9,68.4406,4:37:07.000,2005-01-02 04:00:00
32465,Discharging,-965.4,14.4196,4475.52,68.639,4:37:58.000,2005-01-02 04:00:51
32516,Discharging,-967.2,14.4171,4489.136,68.83744,4:38:49.000,2005-01-02 04:01:42
32567,Discharging,-965.4,14.4146,4502.75,69.0359,4:39:40.000,2005-01-02 04:02:33
32618,Discharging,-965.4,14.4097,4516.37,69.2343,4:40:31.000,2005-01-02 04:03:24
32669,Discharging,-965.4,14.4047,4529.99,69.4328,4:41:22.000,2005-01-02 04:04:15
32720,Discharging,-967.2,14.4022,4543.62,69.6312,4:42:13.000,2005-01-02 04:05:06
32771,Discharging,-967.2,14.3973,4557.24,69.8296,4:43:04.000,2005-01-02 04:05:57
32822,Discharging,-967.2,14.3923,4570.87,70.0281,4:43:55.000,2005-01-02 04:06:48
32873,Discharging,-967.2,14.3874,4584.5,70.2265,4:44:46.000,2005-01-02 04:07:39
32924,Discharging,-967.2,14.3849,4598.13,70.425,4:45:37.000,2005-01-02 04:08:30
32975,Discharging,-967.2,14.3799,4611.76,70.6234,4:46:28.000,2005-01-02 04:09:21
33026,Discharging,-967.2,14.3774,4625.39,70.8218,4:47:19.000,2005-01-02 04:10:12
33077,Discharging,-967.2,14.3725,4639.02,71.0203,4:48:10.000,2005-01-02 04:11:03
33128,Discharging,-967.2,14.37,4652.65,71.2187,4:49:01.000,2005-01-02 04:11:54
33179,Discharging,-967.2,14.365,4666.28,71.4171,4:49:52.000,2005-01-02 04:12:45
33230,Discharging,-965.4,14.3601,4679.91,71.6153,4:50:43.000,2005-01-02 04:13:36
33281,Discharging,-967.2,14.3576,4693.53,71.8136,4:51:34.000,2005-01-02 04:14:27
33332,Discharging,-967.2,14.3526,4707.16,72.0119,4:52:25.000,2005-01-02 04:15:18
33383,Discharging,-965.4,14.3501,4720.79,72.2101,4:53:16.000,2005-01-02 04:16:09
33434,Discharging,-967.2,14.3452,4734.416,72.4083,4:54:07.000,2005-01-02 04:17:00
33485,Discharging,-967.2,14.3427,4748.05,72.6065,4:54:58.000,2005-01-02 04:17:51
33536,Discharging,-967.2,14.3402,4761.67,72.8023,4:55:49.000,2005-01-02 04:18:42
33587,Discharging,-967.2,14.3377,4775.3,72.997,4:56:40.000,2005-01-02 04:19:33
33638,Discharging,-967.2,14.3353,4788.94,73.1918,4:57:31.000,2005-01-02 04:20:24
33689,Discharging,-967.2,14.3303,4802.56,73.3864,4:58:22.000,2005-01-02 04:21:15
33740,Discharging,-967.2,14.3278,4816.19,73.5811,4:59:13.000,2005-01-02 04:22:06
33791,Discharging,-967.2,14.3229,4829.82,73.7758,5:00:04.000,2005-01-02 04:22:57
33842,Discharging,-967.2,14.3204,4843.44,73.9705,5:00:55.000,2005-01-02 04:23:48
33893,Discharging,-967.2,14.3179,4857.08,74.1653,5:01:46.000,2005-01-02 04:24:39
33944,Discharging,-967.2,14.3129,4870.704,74.36,5:02:37.000,2005-01-02 04:25:30
33995,Discharging,-967.2,14.3105,4884.33,74.5547,5:03:28.000,2005-01-02 04:26:21
34046,Discharging,-967.2,14.3055,4897.96,74.7494,5:04:19.000,2005-01-02 04:27:12
34097,Discharging,-967.2,14.303,4911.59,74.9441,5:05:10.000,2005-01-02 04:28:03
34148,Discharging,-965.4,14.303,4925.216,75.1388,5:06:01.000,2005-01-02 04:28:54
34199,Discharging,-965.4,14.3005,4938.84,75.3334,5:06:52.000,2005-01-02 04:29:45
34250,Discharging,-965.4,14.2956,4952.46,75.528,5:07:43.000,2005-01-02 04:30:36
34301,Discharging,-965.4,14.2906,4966.08,75.7225,5:08:34.000,2005-01-02 04:31:27
34352,Discharging,-965.4,14.2881,4979.7,75.9171,5:09:25.000,2005-01-02 04:32:18
34403,Discharging,-963.5,14.2857,4993.31,76.1116,5:10:16.000,2005-01-02 04:33:09
34454,Discharging,-965.4,14.2807,5006.93,76.3062,5:11:07.000,2005-01-02 04:34:00
34505,Discharging,-965.4,14.2782,5020.55,76.5007,5:11:58.000,2005-01-02 04:34:51
34556,Discharging,-965.4,14.2757,5034.17,76.6953,5:12:49.000,2005-01-02 04:35:42
34607,Discharging,-963.5,14.2733,5047.79,76.8898,5:13:40.000,2005-01-02 04:36:33
34658,Discharging,-965.4,14.2658,5061.41,77.0844,5:14:31.000,2005-01-02 04:37:24
34709,Discharging,-965.4,14.2633,5075.03,77.2789,5:15:22.000,2005-01-02 04:38:15
34760,Discharging,-965.4,14.2584,5088.64,77.4735,5:16:13.000,2005-01-02 04:39:06
34811,Discharging,-967.2,14.2559,5102.26,77.668,5:17:04.000,2005-01-02 04:39:57
34862,Discharging,-965.4,14.2509,5115.88,77.8626,5:17:55.000,2005-01-02 04:40:48
34913,Discharging,-965.4,14.2485,5129.5,78.0571,5:18:46.000,2005-01-02 04:41:39
34964,Discharging,-965.4,14.246,5143.12,78.2517,5:19:37.000,2005-01-02 04:42:30
35015,Discharging,-967.2,14.241,5156.74,78.4462,5:20:28.000,2005-01-02 04:43:21
35066,Discharging,-967.2,14.2385,5170.36,78.6408,5:21:19.000,2005-01-02 04:44:12
35117,Discharging,-967.2,14.2336,5183.98,78.8353,5:22:10.000,2005-01-02 04:45:03
35168,Discharging,-965.4,14.2311,5197.59,79.0298,5:23:01.000,2005-01-02 04:45:54
35219,Discharging,-965.4,14.2261,5211.21,79.2244,5:23:52.000,2005-01-02 04:46:45
35270,Discharging,-965.4,14.2237,5224.83,79.419,5:24:43.000,2005-01-02 04:47:36
35321,Discharging,-965.4,14.2187,5238.45,79.6135,5:25:34.000,2005-01-02 04:48:27
35372,Discharging,-965.4,14.2162,5252.07,79.8081,5:26:25.000,2005-01-02 04:49:18
35423,Discharging,-965.4,14.2113,5265.69,80.0026,5:27:16.000,2005-01-02 04:50:09
35474,Discharging,-965.4,14.2088,5279.31,80.1972,5:28:07.000,2005-01-02 04:51:00
35525,Discharging,-965.4,14.2038,5292.924,80.3917,5:28:58.000,2005-01-02 04:51:51
35576,Discharging,-965.4,14.2013,5306.54,80.5862,5:29:49.000,2005-01-02 04:52:42
35627,Discharging,-965.4,14.1964,5320.17,80.7808,5:30:40.000,2005-01-02 04:53:33
35678,Discharging,-967.2,14.1889,5333.79,80.9754,5:31:31.000,2005-01-02 04:54:24
35729,Discharging,-967.2,14.1865,5347.42,81.1699,5:32:22.000,2005-01-02 04:55:15
35780,Discharging,-967.2,14.1815,5361.04,81.3644,5:33:13.000,2005-01-02 04:56:06
35831,Discharging,-967.2,14.179,5374.67,81.559,5:34:04.000,2005-01-02 04:56:57
35882,Discharging,-967.2,14.1741,5388.29,81.7535,5:34:55.000,2005-01-02 04:57:48
35933,Discharging,-967.2,14.1691,5401.92,81.9481,5:35:46.000,2005-01-02 04:58:39
35984,Discharging,-965.4,14.1617,5415.54,82.1426,5:36:37.000,2005-01-02 04:59:30
36035,Discharging,-967.2,14.1592,5429.17,82.3372,5:37:28.000,2005-01-02 05:00:21
36086,Discharging,-967.2,14.1542,5442.79,82.5317,5:38:19.000,2005-01-02 05:01:12
36137,Discharging,-967.2,14.1493,5456.41,82.7263,5:39:10.000,2005-01-02 05:02:03
36188,Discharging,-967.2,14.1468,5470.04,82.9208,5:40:01.000,2005-01-02 05:02:54
36239,Discharging,-967.2,14.1418,5483.66,83.1154,5:40:52.000,2005-01-02 05:03:45
36290,Discharging,-967.2,14.1344,5497.29,83.3099,5:41:43.000,2005-01-02 05:04:36
36341,Discharging,-967.2,14.1319,5510.92,83.5045,5:42:34.000,2005-01-02 05:05:27
36392,Discharging,-967.2,14.1269,5524.55,83.6991,5:43:25.000,2005-01-02 05:06:18
36443,Discharging,-967.2,14.122,5538.17,83.8936,5:44:16.000,2005-01-02 05:07:09
36494,Discharging,-967.2,14.117,5551.8,84.0881,5:45:07.000,2005-01-02 05:08:00
36545,Discharging,-967.2,14.1121,5565.424,84.2827,5:45:58.000,2005-01-02 05:08:51
36596,Discharging,-967.2,14.1071,5579.05,84.4772,5:46:49.000,2005-01-02 05:09:42
36647,Discharging,-967.2,14.1021,5592.68,84.6718,5:47:40.000,2005-01-02 05:10:33
36698,Discharging,-967.2,14.0997,5606.31,84.8663,5:48:31.000,2005-01-02 05:11:24
36749,Discharging,-967.2,14.0922,5619.94,85.0609,5:49:22.000,2005-01-02 05:12:15
36800,Discharging,-967.2,14.0873,5633.56,85.2554,5:50:13.000,2005-01-02 05:13:06
36851,Discharging,-967.2,14.0823,5647.19,85.45,5:51:04.000,2005-01-02 05:13:57
36902,Discharging,-967.2,14.0773,5660.81,85.6443,5:51:55.000,2005-01-02 05:14:48
36953,Discharging,-967.2,14.0724,5674.44,85.8387,5:52:46.000,2005-01-02 05:15:39
37004,Discharging,-967.2,14.0674,5688.07,86.0331,5:53:37.000,2005-01-02 05:16:30
37055,Discharging,-967.2,14.0649,5701.7,86.2272,5:54:28.000,2005-01-02 05:17:21
37106,Discharging,-967.2,14.0575,5715.32,86.4206,5:55:19.000,2005-01-02 05:18:12
37157,Discharging,-967.2,14.05,5728.94,86.6113,5:56:10.000,2005-01-02 05:19:03
37208,Discharging,-965.4,14.0451,5742.56,86.802,5:57:01.000,2005-01-02 05:19:54
37259,Discharging,-965.4,14.0401,5756.18,86.9927,5:57:52.000,2005-01-02 05:20:45
37310,Discharging,-965.4,14.0352,5769.8,87.1833,5:58:43.000,2005-01-02 05:21:36
37361,Discharging,-965.4,14.0277,5783.42,87.374,5:59:34.000,2005-01-02 05:22:27
37412,Discharging,-965.4,14.0228,5797.03,87.5646,6:00:25.000,2005-01-02 05:23:18
37463,Discharging,-965.4,14.0153,5810.65,87.7553,6:01:16.000,2005-01-02 05:24:09
37514,Discharging,-965.4,14.0104,5824.27,87.946,6:02:07.000,2005-01-02 05:25:00
37565,Discharging,-965.4,14.0029,5837.89,88.1366,6:02:58.000,2005-01-02 05:25:51
37616,Discharging,-965.4,13.998,5851.51,88.3273,6:03:49.000,2005-01-02 05:26:42
37667,Discharging,-965.4,13.9905,5865.13,88.5179,6:04:40.000,2005-01-02 05:27:33
37718,Discharging,-967.2,13.9856,5878.75,88.7086,6:05:31.000,2005-01-02 05:28:24
37769,Discharging,-967.2,13.9781,5892.36,88.8992,6:06:22.000,2005-01-02 05:29:15
37820,Discharging,-967.2,13.9707,5905.98,89.0899,6:07:13.000,2005-01-02 05:30:06
37871,Discharging,-965.4,13.9657,5919.6,89.2806,6:08:04.000,2005-01-02 05:30:57
37922,Discharging,-967.2,13.9558,5933.22,89.4712,6:08:55.000,2005-01-02 05:31:48
37973,Discharging,-965.4,13.9484,5946.84,89.6619,6:09:46.000,2005-01-02 05:32:39
38024,Discharging,-967.2,13.9409,5960.46,89.8525,6:10:37.000,2005-01-02 05:33:30
38075,Discharging,-967.2,13.9335,5974.076,90.0432,6:11:28.000,2005-01-02 05:34:21
38126,Discharging,-965.4,13.9285,5987.7,90.2339,6:12:19.000,2005-01-02 05:35:12
38177,Discharging,-967.2,13.9211,6001.31,90.4245,6:13:10.000,2005-01-02 05:36:03
38228,Discharging,-965.4,13.9136,6014.93,90.6152,6:14:01.000,2005-01-02 05:36:54
38279,Discharging,-965.4,13.9062,6028.55,90.8058,6:14:52.000,2005-01-02 05:37:45
38330,Discharging,-965.4,13.8988,6042.17,90.9965,6:15:43.000,2005-01-02 05:38:36
38381,Discharging,-965.4,13.8913,6055.79,91.1872,6:16:34.000,2005-01-02 05:39:27
38432,Discharging,-965.4,13.8839,6069.41,91.3778,6:17:25.000,2005-01-02 05:40:18
38483,Discharging,-965.4,13.8764,6083.03,91.5685,6:18:16.000,2005-01-02 05:41:09
38534,Discharging,-965.4,13.8715,6096.65,91.7591,6:19:07.000,2005-01-02 05:42:00
38585,Discharging,-967.2,13.8591,6110.28,91.9498,6:19:58.000,2005-01-02 05:42:51
38636,Discharging,-967.2,13.8492,6123.9,92.1404,6:20:49.000,2005-01-02 05:43:42
38687,Discharging,-967.2,13.8417,6137.524,92.3311,6:21:40.000,2005-01-02 05:44:33
38738,Discharging,-967.2,13.8343,6151.15,92.5218,6:22:31.000,2005-01-02 05:45:24
38789,Discharging,-967.2,13.8293,6164.78,92.7124,6:23:22.000,2005-01-02 05:46:15
38840,Discharging,-967.2,13.8219,6178.4,92.9031,6:24:13.000,2005-01-02 05:47:06
38891,Discharging,-967.2,13.8169,6192.03,93.0937,6:25:04.000,2005-01-02 05:47:57
38942,Discharging,-967.2,13.8095,6205.65,93.2844,6:25:55.000,2005-01-02 05:48:48
38993,Discharging,-967.2,13.8045,6219.27,93.4751,6:26:46.000,2005-01-02 05:49:39
39044,Discharging,-967.2,13.7996,6232.9,93.6657,6:27:37.000,2005-01-02 05:50:30
39095,Discharging,-967.2,13.7946,6246.53,93.8562,6:28:28.000,2005-01-02 05:51:21
39146,Discharging,-967.2,13.7896,6260.15,94.0467,6:29:19.000,2005-01-02 05:52:12
39197,Discharging,-967.2,13.7847,6273.78,94.2372,6:30:10.000,2005-01-02 05:53:03
39248,Discharging,-967.2,13.7797,6287.404,94.4277,6:31:01.000,2005-01-02 05:53:54
39299,Discharging,-967.2,13.7748,6301.03,94.6181,6:31:52.000,2005-01-02 05:54:45
39350,Discharging,-967.2,13.7698,6314.65,94.8071,6:32:43.000,2005-01-02 05:55:36
39401,Discharging,-967.2,13.7673,6328.28,94.9939,6:33:34.000,2005-01-02 05:56:27
39452,Discharging,-967.2,13.7624,6341.9,95.1808,6:34:25.000,2005-01-02 05:57:18
39503,Discharging,-967.2,13.7574,6355.53,95.3677,6:35:16.000,2005-01-02 05:58:09
39554,Discharging,-967.2,13.7549,6369.16,95.5546,6:36:07.000,2005-01-02 05:59:00
39605,Discharging,-967.2,13.7475,6382.78,95.74144,6:36:58.000,2005-01-02 05:59:51
39656,Discharging,-967.2,13.7425,6396.4,95.9283,6:37:49.000,2005-01-02 06:00:42
39707,Discharging,-967.2,13.74,6410.03,96.1152,6:38:40.000,2005-01-02 06:01:33
39758,Discharging,-967.2,13.7326,6423.66,96.3021,6:39:31.000,2005-01-02 06:02:24
39809,Discharging,-967.2,13.7301,6437.284,96.489,6:40:22.000,2005-01-02 06:03:15
39860,Discharging,-967.2,13.7251,6450.91,96.6759,6:41:13.000,2005-01-02 06:04:06
39911,Discharging,-967.2,13.7202,6464.54,96.8628,6:42:04.000,2005-01-02 06:04:57
39962,Discharging,-967.2,13.7202,6478.16,97.0496,6:42:55.000,2005-01-02 06:05:48
40013,Discharging,-965.4,13.7127,6491.78,97.2364,6:43:46.000,2005-01-02 06:06:39
40064,Discharging,-967.2,13.7103,6505.4,97.4232,6:44:37.000,2005-01-02 06:07:30
40115,Discharging,-965.4,13.7053,6519.02,97.60992,6:45:28.000,2005-01-02 06:08:21
40166,Discharging,-965.4,13.7003,6532.64,97.7967,6:46:19.000,2005-01-02 06:09:12
40217,Discharging,-967.2,13.6954,6546.26,97.9835,6:47:10.000,2005-01-02 06:10:03
40268,Discharging,-965.4,13.6904,6559.87,98.1702,6:48:01.000,2005-01-02 06:10:54
40319,Discharging,-965.4,13.6855,6573.49,98.357,6:48:52.000,2005-01-02 06:11:45
40370,Discharging,-965.4,13.683,6587.11,98.5438,6:49:43.000,2005-01-02 06:12:36
40421,Discharging,-967.2,13.678,6600.73,98.7305,6:50:34.000,2005-01-02 06:13:27
40472,Discharging,-967.2,13.6731,6614.35,98.9173,6:51:25.000,2005-01-02 06:14:18
40523,Discharging,-965.4,13.6681,6627.968,99.1041,6:52:16.000,2005-01-02 06:15:09
40574,Discharging,-965.4,13.6607,6641.59,99.2908,6:53:07.000,2005-01-02 06:16:00
40625,Discharging,-967.2,13.6582,6655.2,99.4776,6:53:58.000,2005-01-02 06:16:51
40676,Discharging,-965.4,13.6507,6668.824,99.6644,6:54:49.000,2005-01-02 06:17:42
40727,Discharging,-965.4,13.6433,6682.44,99.8511,6:55:40.000,2005-01-02 06:18:33
40778,Discharging,-965.4,13.6383,6696.06,100.038,6:56:31.000,2005-01-02 06:19:24
40829,Discharging,-965.4,13.6334,6709.68,100.225,6:57:22.000,2005-01-02 06:20:15
40880,Discharging,-965.4,13.6284,6723.3,100.411,6:58:13.000,2005-01-02 06:21:06
40931,Discharging,-967.2,13.6235,6736.916,100.598,6:59:04.000,2005-01-02 06:21:57
40982,Discharging,-967.2,13.616,6750.53,100.785,6:59:55.000,2005-01-02 06:22:48
41033,Discharging,-967.2,13.6111,6764.15,100.972,7:00:46.000,2005-01-02 06:23:39
41084,Discharging,-965.4,13.6036,6777.77,101.159,7:01:37.000,2005-01-02 06:24:30
41135,Discharging,-965.4,13.5962,6791.39,101.345,7:02:28.000,2005-01-02 06:25:21
41186,Discharging,-965.4,13.5912,6805.01,101.532,7:03:19.000,2005-01-02 06:26:12
41237,Discharging,-965.4,13.5838,6818.63,101.719,7:04:10.000,2005-01-02 06:27:03
41288,Discharging,-965.4,13.5739,6832.25,101.906,7:05:01.000,2005-01-02 06:27:54
41339,Discharging,-965.4,13.5664,6845.86,102.092,7:05:52.000,2005-01-02 06:28:45
41390,Discharging,-967.2,13.559,6859.48,102.279,7:06:43.000,2005-01-02 06:29:36
41441,Discharging,-967.2,13.5491,6873.11,102.466,7:07:34.000,2005-01-02 06:30:27
41492,Discharging,-967.2,13.5317,6886.73,102.653,7:08:25.000,2005-01-02 06:31:18
41543,Discharging,-967.2,13.5193,6900.35,102.839,7:09:16.000,2005-01-02 06:32:09
41594,Discharging,-967.2,13.5069,6913.976,103.026,7:10:07.000,2005-01-02 06:33:00
41645,Discharging,-967.2,13.492,6927.6,103.213,7:10:58.000,2005-01-02 06:33:51
41696,Discharging,-967.2,13.4771,6941.22,103.397,7:11:49.000,2005-01-02 06:34:42
41747,Discharging,-967.2,13.4598,6954.848,103.58,7:12:40.000,2005-01-02 06:35:33
41798,Discharging,-967.2,13.4449,6968.472,103.763,7:13:31.000,2005-01-02 06:36:24
41849,Discharging,-967.2,13.425,6982.09,103.945,7:14:22.000,2005-01-02 06:37:15
41900,Discharging,-965.4,13.4102,6995.72,104.128,7:15:13.000,2005-01-02 06:38:06
41951,Discharging,-967.2,13.3928,7009.34,104.311,7:16:04.000,2005-01-02 06:38:57
42002,Discharging,-967.2,13.3779,7022.96,104.494,7:16:55.000,2005-01-02 06:39:48
42053,Discharging,-967.2,13.363,7036.59,104.677,7:17:46.000,2005-01-02 06:40:39
42104,Discharging,-967.2,13.3506,7050.21,104.86,7:18:37.000,2005-01-02 06:41:30
42155,Discharging,-967.2,13.3333,7063.84,105.043,7:19:28.000,2005-01-02 06:42:21
42206,Discharging,-967.2,13.3209,7077.46,105.226,7:20:19.000,2005-01-02 06:43:12
42257,Discharging,-967.2,13.306,7091.08,105.408,7:21:10.000,2005-01-02 06:44:03
42308,Discharging,-967.2,13.2911,7104.71,105.591,7:22:01.000,2005-01-02 06:44:54
42359,Discharging,-967.2,13.2787,7118.33,105.774,7:22:52.000,2005-01-02 06:45:45
42410,Discharging,-967.2,13.2638,7131.96,105.957,7:23:43.000,2005-01-02 06:46:36
42461,Discharging,-967.2,13.2514,7145.58,106.14,7:24:34.000,2005-01-02 06:47:27
42512,Discharging,-967.2,13.2366,7159.204,106.323,7:25:25.000,2005-01-02 06:48:18
42563,Discharging,-967.2,13.2217,7172.83,106.506,7:26:16.000,2005-01-02 06:49:09
42614,Discharging,-965.4,13.2068,7186.45,106.688,7:27:07.000,2005-01-02 06:50:00
42665,Discharging,-967.2,13.1919,7200.07,106.867,7:27:58.000,2005-01-02 06:50:51
42716,Discharging,-967.2,13.177,7213.69,107.046,7:28:49.000,2005-01-02 06:51:42
42767,Discharging,-967.2,13.1622,7227.32,107.225,7:29:40.000,2005-01-02 06:52:33
42818,Discharging,-967.2,13.1473,7240.94,107.404,7:30:31.000,2005-01-02 06:53:24
42869,Discharging,-967.2,13.1349,7254.56,107.583,7:31:22.000,2005-01-02 06:54:15
42920,Discharging,-965.4,13.1175,7268.18,107.762,7:32:13.000,2005-01-02 06:55:06
42971,Discharging,-965.4,13.1026,7281.8,107.941,7:33:04.000,2005-01-02 06:55:57
43022,Discharging,-965.4,13.0853,7295.42,108.12,7:33:55.000,2005-01-02 06:56:48
43073,Discharging,-965.4,13.0704,7309.04,108.299,7:34:46.000,2005-01-02 06:57:39
43124,Discharging,-965.4,13.0555,7322.66,108.478,7:35:37.000,2005-01-02 06:58:30
43175,Discharging,-965.4,13.0381,7336.27,108.657,7:36:28.000,2005-01-02 06:59:21
43226,Discharging,-965.4,13.0183,7349.89,108.836,7:37:19.000,2005-01-02 07:00:12
43277,Discharging,-965.4,13.0009,7363.51,109.015,7:38:10.000,2005-01-02 07:01:03
43328,Discharging,-965.4,12.9836,7377.13,109.194,7:39:01.000,2005-01-02 07:01:54
43379,Discharging,-967.2,12.9662,7390.75,109.373,7:39:52.000,2005-01-02 07:02:45
43430,Discharging,-965.4,12.9464,7404.37,109.552,7:40:43.000,2005-01-02 07:03:36
43481,Discharging,-965.4,12.929,7417.98,109.728,7:41:34.000,2005-01-02 07:04:27
43532,Discharging,-965.4,12.9067,7431.6,109.903,7:42:25.000,2005-01-02 07:05:18
43583,Discharging,-967.2,12.8893,7445.22,110.078,7:43:16.000,2005-01-02 07:06:09
43634,Discharging,-965.4,12.8695,7458.84,110.253,7:44:07.000,2005-01-02 07:07:00
43685,Discharging,-965.4,12.8497,7472.46,110.429,7:44:58.000,2005-01-02 07:07:51
43736,Discharging,-965.4,12.8298,7486.08,110.604,7:45:49.000,2005-01-02 07:08:42
43787,Discharging,-965.4,12.8075,7499.696,110.779,7:46:40.000,2005-01-02 07:09:33
43838,Discharging,-965.4,12.7901,7513.31,110.954,7:47:31.000,2005-01-02 07:10:24
43889,Discharging,-965.4,12.7678,7526.93,111.129,7:48:22.000,2005-01-02 07:11:15
43940,Discharging,-967.2,12.748,7540.55,111.304,7:49:13.000,2005-01-02 07:12:06
43991,Discharging,-965.4,12.7281,7554.17,111.479,7:50:04.000,2005-01-02 07:12:57
44042,Discharging,-965.4,12.7058,7567.79,111.654,7:50:55.000,2005-01-02 07:13:48
44093,Discharging,-965.4,12.686,7581.41,111.829,7:51:46.000,2005-01-02 07:14:39
44144,Discharging,-967.2,12.6661,7595.02,112.004,7:52:37.000,2005-01-02 07:15:30
44195,Discharging,-965.4,12.6463,7608.64,112.177,7:53:28.000,2005-01-02 07:16:21
44246,Discharging,-965.4,12.6264,7622.26,112.349,7:54:19.000,2005-01-02 07:17:12
44297,Discharging,-967.2,12.6041,7635.88,112.52,7:55:10.000,2005-01-02 07:18:03
44348,Discharging,-967.2,12.5818,7649.5,112.691,7:56:01.000,2005-01-02 07:18:54
44399,Discharging,-967.2,12.5595,7663.12,112.862,7:56:52.000,2005-01-02 07:19:45
44450,Discharging,-967.2,12.5396,7676.74,113.034,7:57:43.000,2005-01-02 07:20:36
44501,Discharging,-965.4,12.5173,7690.36,113.205,7:58:34.000,2005-01-02 07:21:27
44552,Discharging,-967.2,12.495,7703.98,113.376,7:59:25.000,2005-01-02 07:22:18
44603,Discharging,-967.2,12.4751,7717.608,113.547,8:00:16.000,2005-01-02 07:23:09
44654,Discharging,-967.2,12.4553,7731.23,113.718,8:01:07.000,2005-01-02 07:24:00
44705,Discharging,-967.2,12.4355,7744.85,113.89,8:01:58.000,2005-01-02 07:24:51
44756,Discharging,-967.2,12.4131,7758.48,114.061,8:02:49.000,2005-01-02 07:25:42
44807,Discharging,-967.2,12.3908,7772.1,114.232,8:03:40.000,2005-01-02 07:26:33
44858,Discharging,-967.2,12.371,7785.72,114.403,8:04:31.000,2005-01-02 07:27:24
44909,Discharging,-967.2,12.3511,7799.34,114.574,8:05:22.000,2005-01-02 07:28:15
44960,Discharging,-967.2,12.3288,7812.96,114.741,8:06:13.000,2005-01-02 07:29:06
45011,Discharging,-967.2,12.309,7826.58,114.908,8:07:04.000,2005-01-02 07:29:57
45062,Discharging,-967.2,12.2867,7840.2,115.076,8:07:55.000,2005-01-02 07:30:48
45113,Discharging,-967.2,12.2668,7853.83,115.243,8:08:46.000,2005-01-02 07:31:39
45164,Discharging,-967.2,12.2445,7867.45,115.41,8:09:37.000,2005-01-02 07:32:30
45215,Discharging,-967.2,12.2247,7881.07,115.578,8:10:28.000,2005-01-02 07:33:21
45266,Discharging,-967.2,12.2023,7894.69,115.745,8:11:19.000,2005-01-02 07:34:12
45317,Discharging,-967.2,12.1775,7908.32,115.912,8:12:10.000,2005-01-02 07:35:03
45368,Discharging,-967.2,12.1552,7921.94,116.079,8:13:01.000,2005-01-02 07:35:54
45419,Discharging,-967.2,12.1329,7935.56,116.247,8:13:52.000,2005-01-02 07:36:45
45470,Discharging,-967.2,12.1106,7949.18,116.414,8:14:43.000,2005-01-02 07:37:36
45521,Discharging,-967.2,12.0833,7962.8,116.581,8:15:34.000,2005-01-02 07:38:27
45572,Discharging,-967.2,12.061,7976.43,116.747,8:16:25.000,2005-01-02 07:39:18
45623,Discharging,-967.2,12.0337,7990.05,116.91,8:17:16.000,2005-01-02 07:40:09
45674,Discharging,-967.2,12.0089,8003.67,117.074,8:18:07.000,2005-01-02 07:41:00
45725,Discharging,-863.0,12.0039,8016.69,117.23,8:18:58.000,2005-01-02 07:41:51
45776,Discharging,-792.4,12.0064,8028.38,117.371,8:19:49.000,2005-01-02 07:42:42
45827,Discharging,-710.5,12.0039,8039.01,117.498,8:20:40.000,2005-01-02 07:43:33
45878,Discharging,-641.7,12.0039,8048.61,117.613,8:21:31.000,2005-01-02 07:44:24
45929,Discharging,-585.9,12.0039,8057.28,117.718,8:22:22.000,2005-01-02 07:45:15
45980,Discharging,-530.1,12.0039,8065.17,117.812,8:23:13.000,2005-01-02 07:46:06
46031,Discharging,-479.9,12.0039,8072.28,117.898,8:24:04.000,2005-01-02 07:46:57
46082,Discharging,-437.1,12.0039,8078.78,117.976,8:24:55.000,2005-01-02 07:47:48
46133,Discharging,-399.9,12.0039,8084.74,118.047,8:25:46.000,2005-01-02 07:48:39
46184,Discharging,-366.4,12.0039,8090.16,118.112,8:26:37.000,2005-01-02 07:49:30
46235,Discharging,-336.6,12.0039,8095.13,118.172,8:27:28.000,2005-01-02 07:50:21
46286,Discharging,-308.7,12.0039,8099.65,118.226,8:28:19.000,2005-01-02 07:51:12
46337,Discharging,-282.7,12.0039,8103.88,118.277,8:29:10.000,2005-01-02 07:52:03
46388,Discharging,-262.2,12.0039,8107.77,118.323,8:30:01.000,2005-01-02 07:52:54
46439,Discharging,-243.6,12.0039,8111.29,118.366,8:30:52.000,2005-01-02 07:53:45
46490,Discharging,-225.0,12.0039,8114.69,118.405,8:31:43.000,2005-01-02 07:54:36
46541,Discharging,-210.1,12.0039,8117.73,118.443,8:32:34.000,2005-01-02 07:55:27
46592,Discharging,-197.1,12.0039,8120.64,118.478,8:33:25.000,2005-01-02 07:56:18
46643,Discharging,-184.1,12.0039,8123.32,118.509,8:34:16.000,2005-01-02 07:57:09
46694,Discharging,-171.1,12.0039,8125.75,118.54,8:35:07.000,2005-01-02 07:58:00
46745,Discharging,-161.8,12.0039,8128.18,118.567,8:35:58.000,2005-01-02 07:58:51
46796,Discharging,-152.5,12.0039,8130.39,118.594,8:36:49.000,2005-01-02 07:59:42
46847,Discharging,-143.2,12.0039,8132.33,118.619,8:37:40.000,2005-01-02 08:00:33
46898,Discharging,-133.9,12.0039,8134.28,118.643,8:38:31.000,2005-01-02 08:01:24
46949,Discharging,-130.2,12.0039,8136.23,118.666,8:39:22.000,2005-01-02 08:02:15
47000,Discharging,-124.6,12.0039,8138.17,118.688,8:40:13.000,2005-01-02 08:03:06
47051,Discharging,-115.3,12.0039,8139.76,118.707,8:41:04.000,2005-01-02 08:03:57
47102,Discharging,-111.6,12.0039,8141.216,118.727,8:41:55.000,2005-01-02 08:04:48
47153,Discharging,-107.8,12.0039,8142.67,118.746,8:42:46.000,2005-01-02 08:05:39
47204,Discharging,-106.0,12.0039,8144.13,118.765,8:43:37.000,2005-01-02 08:06:30
47220,Discharging,-100.4,12.0064,8144.592,118.771,8:43:53.000,2005-01-02 08:06:46