File: Energy-Available/battery_curve/charging_df_1.csv
Index,Status,Current(mA),Voltage(V),Capacity(mAh),Energy(Wh),RelaTime(h:min:s.ms),AbsoTime(h:min:s.ms)
48424,Charging,1454.6,12.3338,0.384028,0.00471572,0:00:01.000,2005-01-02 08:26:48
48468,Charging,1454.6,12.5198,18.16525,0.225895,0:00:45.000,2005-01-02 08:27:32
48512,Charging,1456.4,12.6438,35.9464,0.449653,0:01:29.000,2005-01-02 08:28:16
48556,Charging,1456.4,12.748,53.7277,0.675424,0:02:13.000,2005-01-02 08:29:00
48600,Charging,1454.6,12.8373,71.509,0.902891,0:02:57.000,2005-01-02 08:29:44
48644,Charging,1454.6,12.9141,89.2896,1.13184,0:03:41.000,2005-01-02 08:30:28
48688,Charging,1454.6,12.991,107.071,1.362185,0:04:25.000,2005-01-02 08:31:12
48732,Charging,1454.6,13.0555,124.851,1.59372,0:05:09.000,2005-01-02 08:31:56
48776,Charging,1454.6,13.115,142.631,1.82634,0:05:53.000,2005-01-02 08:32:40
48820,Charging,1454.6,13.1721,160.411,2.06,0:06:37.000,2005-01-02 08:33:24
48864,Charging,1454.6,13.2242,178.19,2.29463,0:07:21.000,2005-01-02 08:34:08
48908,Charging,1454.6,13.2738,195.97,2.53017,0:08:05.000,2005-01-02 08:34:52
48952,Charging,1454.6,13.3184,213.751,2.76656,0:08:49.000,2005-01-02 08:35:36
48996,Charging,1454.6,13.363,231.531,3.00373,0:09:33.000,2005-01-02 08:36:20
49040,Charging,1454.6,13.4052,249.311,3.24168,0:10:17.000,2005-01-02 08:37:04
49084,Charging,1454.6,13.4424,267.091,3.48031,0:11:01.000,2005-01-02 08:37:48
49128,Charging,1454.6,13.4796,284.872,3.719624,0:11:45.000,2005-01-02 08:38:32
49172,Charging,1454.6,13.5143,302.651,3.95955,0:12:29.000,2005-01-02 08:39:16
49216,Charging,1454.6,13.5441,320.431,4.20006,0:13:13.000,2005-01-02 08:40:00
49260,Charging,1454.6,13.5763,338.211,4.44113,0:13:57.000,2005-01-02 08:40:44
49304,Charging,1454.6,13.6036,355.991,4.68275,0:14:41.000,2005-01-02 08:41:28
49348,Charging,1454.6,13.6309,373.77,4.92484,0:15:25.000,2005-01-02 08:42:12
49392,Charging,1454.6,13.6557,391.551,5.1674,0:16:09.000,2005-01-02 08:42:56
49436,Charging,1454.6,13.6805,409.331,5.41042,0:16:53.000,2005-01-02 08:43:40
49480,Charging,1454.6,13.7028,427.112,5.65386,0:17:37.000,2005-01-02 08:44:24
49524,Charging,1454.6,13.7227,444.892,5.89767,0:18:21.000,2005-01-02 08:45:08
49568,Charging,1454.6,13.7425,462.672,6.1418,0:19:05.000,2005-01-02 08:45:52
49612,Charging,1454.6,13.7624,480.452,6.3863,0:19:49.000,2005-01-02 08:46:36
49656,Charging,1456.4,13.7797,498.233,6.6311,0:20:33.000,2005-01-02 08:47:20
49700,Charging,1454.6,13.7971,516.014,6.87624,0:21:17.000,2005-01-02 08:48:04
49744,Charging,1454.6,13.812,533.795,7.12165,0:22:01.000,2005-01-02 08:48:48
49788,Charging,1454.6,13.8244,551.575,7.36729,0:22:45.000,2005-01-02 08:49:32
49832,Charging,1454.6,13.8392,569.356,7.61319,0:23:29.000,2005-01-02 08:50:16
49876,Charging,1454.6,13.8516,587.137,7.859352,0:24:13.000,2005-01-02 08:51:00
49920,Charging,1454.6,13.864,604.917,8.10566,0:24:57.000,2005-01-02 08:51:44
49964,Charging,1454.6,13.874,622.698,8.35224,0:25:41.000,2005-01-02 08:52:28
50008,Charging,1454.6,13.8888,640.477,8.59896,0:26:25.000,2005-01-02 08:53:12
50052,Charging,1454.6,13.8988,658.258,8.84601,0:27:09.000,2005-01-02 08:53:56
50096,Charging,1454.6,13.9062,676.045,9.09325,0:27:53.000,2005-01-02 08:54:40
50140,Charging,1454.6,13.9136,693.829,9.34046,0:28:37.000,2005-01-02 08:55:24
50184,Charging,1454.6,13.9211,711.613,9.58797,0:29:21.000,2005-01-02 08:56:08
50228,Charging,1454.6,13.926,729.397,9.83558,0:30:05.000,2005-01-02 08:56:52
50272,Charging,1454.6,13.9335,747.18,10.0832,0:30:49.000,2005-01-02 08:57:36
50316,Charging,1454.6,13.9409,764.965,10.331,0:31:33.000,2005-01-02 08:58:20
50360,Charging,1454.6,13.9459,782.749,10.579,0:32:17.000,2005-01-02 08:59:04
50404,Charging,1454.6,13.9533,800.533,10.827,0:33:01.000,2005-01-02 08:59:48
50448,Charging,1454.6,13.9608,818.316,11.0751,0:33:45.000,2005-01-02 09:00:32
50492,Charging,1454.6,13.9657,836.1,11.3233,0:34:29.000,2005-01-02 09:01:16
50536,Charging,1456.4,13.9707,853.884,11.5718,0:35:13.000,2005-01-02 09:02:00
50580,Charging,1454.6,13.9781,871.668,11.8202,0:35:57.000,2005-01-02 09:02:44
50624,Charging,1454.6,13.9831,889.452,12.0687,0:36:41.000,2005-01-02 09:03:28
50668,Charging,1454.6,13.993,907.237,12.3176,0:37:25.000,2005-01-02 09:04:12
50712,Charging,1456.4,13.998,925.021,12.5664,0:38:09.000,2005-01-02 09:04:56
50756,Charging,1454.6,14.0054,942.805,12.8153,0:38:53.000,2005-01-02 09:05:40
50800,Charging,1454.6,14.0128,960.589,13.0644,0:39:37.000,2005-01-02 09:06:24
50844,Charging,1454.6,14.0178,978.372,13.3136,0:40:21.000,2005-01-02 09:07:08
50888,Charging,1454.6,14.0252,996.155,13.5629,0:41:05.000,2005-01-02 09:07:52
50932,Charging,1454.6,14.0327,1013.94,13.8122,0:41:49.000,2005-01-02 09:08:36
50976,Charging,1454.6,14.0376,1031.72,14.0619,0:42:33.000,2005-01-02 09:09:20
51020,Charging,1454.6,14.0426,1049.5,14.3116,0:43:17.000,2005-01-02 09:10:04
51064,Charging,1454.6,14.05,1067.28,14.5613,0:44:01.000,2005-01-02 09:10:48
51108,Charging,1454.6,14.055,1085.06,14.811,0:44:45.000,2005-01-02 09:11:32
51152,Charging,1454.6,14.0625,1102.84,15.0611,0:45:29.000,2005-01-02 09:12:16
51196,Charging,1454.6,14.0699,1120.62,15.3112,0:46:13.000,2005-01-02 09:13:00
51240,Charging,1454.6,14.0749,1138.41,15.5613,0:46:57.000,2005-01-02 09:13:44
51284,Charging,1454.6,14.0798,1156.19,15.8116,0:47:41.000,2005-01-02 09:14:28
51328,Charging,1454.6,14.0873,1173.97,16.062,0:48:25.000,2005-01-02 09:15:12
51372,Charging,1454.6,14.0972,1191.75,16.3126,0:49:09.000,2005-01-02 09:15:56
51416,Charging,1454.6,14.1021,1209.53,16.5635,0:49:53.000,2005-01-02 09:16:40
51460,Charging,1454.6,14.1096,1227.31,16.8144,0:50:37.000,2005-01-02 09:17:24
51504,Charging,1454.6,14.1145,1245.09,17.0654,0:51:21.000,2005-01-02 09:18:08
51548,Charging,1454.6,14.1245,1262.87,17.3163,0:52:05.000,2005-01-02 09:18:52
51592,Charging,1454.6,14.1294,1280.66,17.5674,0:52:49.000,2005-01-02 09:19:36
51636,Charging,1454.6,14.1369,1298.44,17.8183,0:53:33.000,2005-01-02 09:20:20
51680,Charging,1454.6,14.1418,1316.22,18.0698,0:54:17.000,2005-01-02 09:21:04
51724,Charging,1454.6,14.1493,1334,18.3216,0:55:01.000,2005-01-02 09:21:48
51768,Charging,1454.6,14.1567,1351.78,18.5733,0:55:45.000,2005-01-02 09:22:32
51812,Charging,1454.6,14.1641,1369.56,18.825,0:56:29.000,2005-01-02 09:23:16
51856,Charging,1454.6,14.1716,1387.33,19.0768,0:57:13.000,2005-01-02 09:24:00
51900,Charging,1454.6,14.1765,1405.11,19.3286,0:57:57.000,2005-01-02 09:24:44
51944,Charging,1454.6,14.184,1422.895,19.5804,0:58:41.000,2005-01-02 09:25:28
51988,Charging,1454.6,14.1914,1440.675,19.8329,0:59:25.000,2005-01-02 09:26:12
52032,Charging,1454.6,14.2013,1458.455,20.0854,1:00:09.000,2005-01-02 09:26:56
52076,Charging,1454.6,14.2088,1476.23,20.338,1:00:53.000,2005-01-02 09:27:40
52120,Charging,1454.6,14.2162,1494.01,20.5906,1:01:37.000,2005-01-02 09:28:24
52164,Charging,1454.6,14.2261,1511.794,20.8432,1:02:21.000,2005-01-02 09:29:08
52208,Charging,1454.6,14.2336,1529.57,21.0959,1:03:05.000,2005-01-02 09:29:52
52252,Charging,1454.6,14.241,1547.35,21.3493,1:03:49.000,2005-01-02 09:30:36
52296,Charging,1454.6,14.2485,1565.13,21.6028,1:04:33.000,2005-01-02 09:31:20
52340,Charging,1454.6,14.2559,1582.91,21.8562,1:05:17.000,2005-01-02 09:32:04
52384,Charging,1454.6,14.2658,1600.69,22.1096,1:06:01.000,2005-01-02 09:32:48
52428,Charging,1454.6,14.2733,1618.47,22.3631,1:06:45.000,2005-01-02 09:33:32
52472,Charging,1454.6,14.2807,1636.25,22.6167,1:07:29.000,2005-01-02 09:34:16
52516,Charging,1454.6,14.2906,1654.03,22.871,1:08:13.000,2005-01-02 09:35:00
52560,Charging,1456.4,14.2981,1671.81,23.1253,1:08:57.000,2005-01-02 09:35:44
52604,Charging,1454.6,14.308,1689.59,23.3795,1:09:41.000,2005-01-02 09:36:28
52648,Charging,1454.6,14.3154,1707.37,23.6338,1:10:25.000,2005-01-02 09:37:12
52692,Charging,1454.6,14.3253,1725.15,23.8881,1:11:09.000,2005-01-02 09:37:56
52736,Charging,1454.6,14.3328,1742.93,24.143,1:11:53.000,2005-01-02 09:38:40
52780,Charging,1454.6,14.3377,1760.71,24.3981,1:12:37.000,2005-01-02 09:39:24
52824,Charging,1454.6,14.3452,1778.49,24.6532,1:13:21.000,2005-01-02 09:40:08
52868,Charging,1454.6,14.3551,1796.27,24.9084,1:14:05.000,2005-01-02 09:40:52
52912,Charging,1454.6,14.3625,1814.05,25.1635,1:14:49.000,2005-01-02 09:41:36
52956,Charging,1454.6,14.375,1831.83,25.4187,1:15:33.000,2005-01-02 09:42:20
53000,Charging,1456.4,14.3799,1849.62,25.6747,1:16:17.000,2005-01-02 09:43:04
53044,Charging,1456.4,14.3874,1867.4,25.9306,1:17:01.000,2005-01-02 09:43:48
53088,Charging,1454.6,14.3948,1885.18,26.1866,1:17:45.000,2005-01-02 09:44:32
53132,Charging,1454.6,14.4022,1902.96,26.4426,1:18:29.000,2005-01-02 09:45:16
53176,Charging,1456.4,14.4097,1920.74,26.6986,1:19:13.000,2005-01-02 09:46:00
53220,Charging,1454.6,14.4171,1938.52,26.9546,1:19:57.000,2005-01-02 09:46:44
53264,Charging,1456.4,14.4246,1956.3,27.2111,1:20:41.000,2005-01-02 09:47:28
53308,Charging,1454.6,14.432,1974.084,27.4679,1:21:25.000,2005-01-02 09:48:12
53352,Charging,1454.6,14.4394,1991.87,27.7247,1:22:09.000,2005-01-02 09:48:56
53396,Charging,1454.6,14.4469,2009.62,27.9815,1:22:53.000,2005-01-02 09:49:40
53440,Charging,1454.6,14.4518,2027.36,28.2383,1:23:37.000,2005-01-02 09:50:24
53484,Charging,1454.6,14.4593,2045.1,28.4952,1:24:21.000,2005-01-02 09:51:08
53528,Charging,1454.6,14.4667,2062.842,28.7521,1:25:05.000,2005-01-02 09:51:52
53572,Charging,1454.6,14.4766,2080.58,29.0097,1:25:49.000,2005-01-02 09:52:36
53616,Charging,1454.6,14.4841,2098.324,29.2673,1:26:33.000,2005-01-02 09:53:20
53660,Charging,1454.6,14.4915,2116.06,29.525,1:27:17.000,2005-01-02 09:54:04
53704,Charging,1454.6,14.499,2133.8,29.7826,1:28:01.000,2005-01-02 09:54:48
53748,Charging,1454.6,14.5064,2151.54,30.0404,1:28:45.000,2005-01-02 09:55:32
53792,Charging,1454.6,14.5138,2169.28,30.2981,1:29:29.000,2005-01-02 09:56:16
53836,Charging,1454.6,14.5188,2187.024,30.5564,1:30:13.000,2005-01-02 09:57:00
53880,Charging,1454.6,14.5262,2204.76,30.8149,1:30:57.000,2005-01-02 09:57:44
53924,Charging,1454.6,14.5337,2222.5,31.0733,1:31:41.000,2005-01-02 09:58:28
53968,Charging,1454.6,14.5411,2240.24,31.3318,1:32:25.000,2005-01-02 09:59:12
54012,Charging,1454.6,14.5486,2257.98,31.5904,1:33:09.000,2005-01-02 09:59:56
54056,Charging,1454.6,14.556,2275.71,31.8489,1:33:53.000,2005-01-02 10:00:40
54100,Charging,1454.6,14.5634,2293.452,32.1075,1:34:37.000,2005-01-02 10:01:24
54144,Charging,1454.6,14.5684,2311.19,32.366,1:35:21.000,2005-01-02 10:02:08
54188,Charging,1454.6,14.5758,2328.93,32.6246,1:36:05.000,2005-01-02 10:02:52
54232,Charging,1454.6,14.5858,2346.67,32.8833,1:36:49.000,2005-01-02 10:03:36
54276,Charging,1456.4,14.5907,2364.41,33.1428,1:37:33.000,2005-01-02 10:04:20
54320,Charging,1454.6,14.5957,2382.15,33.4029,1:38:17.000,2005-01-02 10:05:04
54364,Charging,1454.6,14.6031,2399.89,33.6631,1:39:01.000,2005-01-02 10:05:48
54408,Charging,1456.4,14.6106,2417.63,33.9233,1:39:45.000,2005-01-02 10:06:32
54452,Charging,1454.6,14.6155,2435.38,34.1834,1:40:29.000,2005-01-02 10:07:16
54496,Charging,1454.6,14.6205,2453.108,34.4435,1:41:13.000,2005-01-02 10:08:00
54540,Charging,1454.6,14.6254,2470.84,34.7036,1:41:57.000,2005-01-02 10:08:44
54584,Charging,1454.6,14.6304,2488.57,34.9638,1:42:41.000,2005-01-02 10:09:28
54628,Charging,1454.6,14.6354,2506.3,35.224,1:43:25.000,2005-01-02 10:10:12
54672,Charging,1454.6,14.6403,2524.03,35.4841,1:44:09.000,2005-01-02 10:10:56
54716,Charging,1454.6,14.6453,2541.76,35.7443,1:44:53.000,2005-01-02 10:11:40
54760,Charging,1454.6,14.6502,2559.49,36.0044,1:45:37.000,2005-01-02 10:12:24
54804,Charging,1454.6,14.6552,2577.22,36.2646,1:46:21.000,2005-01-02 10:13:08
54848,Charging,1454.6,14.6577,2594.95,36.5248,1:47:05.000,2005-01-02 10:13:52
54892,Charging,1450.8,14.6626,2612.68,36.7849,1:47:49.000,2005-01-02 10:14:36
54936,Charging,1454.6,14.6676,2630.41,37.0451,1:48:33.000,2005-01-02 10:15:20
54980,Charging,1454.6,14.6701,2648.14,37.3053,1:49:17.000,2005-01-02 10:16:04
55024,Charging,1454.6,14.675,2665.87,37.5655,1:50:01.000,2005-01-02 10:16:48
55068,Charging,1454.6,14.6775,2683.6,37.8256,1:50:45.000,2005-01-02 10:17:32
55112,Charging,1454.6,14.685,2701.33,38.0864,1:51:29.000,2005-01-02 10:18:16
55156,Charging,1454.6,14.6875,2719.06,38.3481,1:52:13.000,2005-01-02 10:19:00
55200,Charging,1454.6,14.6924,2736.79,38.6099,1:52:57.000,2005-01-02 10:19:44
55244,Charging,1454.6,14.6974,2754.53,38.8718,1:53:41.000,2005-01-02 10:20:28
55288,Charging,1454.6,14.6999,2772.26,39.1336,1:54:25.000,2005-01-02 10:21:12
55332,Charging,1454.6,14.7048,2789.99,39.3954,1:55:09.000,2005-01-02 10:21:56
55376,Charging,1454.6,14.7073,2807.72,39.6572,1:55:53.000,2005-01-02 10:22:40
55420,Charging,1454.6,14.7123,2825.45,39.919,1:56:37.000,2005-01-02 10:23:24
55464,Charging,1454.6,14.7172,2843.182,40.1808,1:57:21.000,2005-01-02 10:24:08
55508,Charging,1454.6,14.7197,2860.91,40.4426,1:58:05.000,2005-01-02 10:24:52
55552,Charging,1454.6,14.7247,2878.64,40.7044,1:58:49.000,2005-01-02 10:25:36
55596,Charging,1454.6,14.7271,2896.37,40.9663,1:59:33.000,2005-01-02 10:26:20
55640,Charging,1454.6,14.7321,2914.1,41.2281,2:00:17.000,2005-01-02 10:27:04
55684,Charging,1454.6,14.7346,2931.84,41.49,2:01:01.000,2005-01-02 10:27:48
55728,Charging,1454.6,14.7395,2949.57,41.7518,2:01:45.000,2005-01-02 10:28:32
55772,Charging,1454.6,14.7445,2967.3,42.0136,2:02:29.000,2005-01-02 10:29:16
55816,Charging,1454.6,14.7495,2985.04,42.2755,2:03:13.000,2005-01-02 10:30:00
55860,Charging,1454.6,14.7495,3002.78,42.5373,2:03:57.000,2005-01-02 10:30:44
55904,Charging,1454.6,14.7544,3020.53,42.7992,2:04:41.000,2005-01-02 10:31:28
55948,Charging,1454.6,14.7569,3038.27,43.061,2:05:25.000,2005-01-02 10:32:12
55992,Charging,1454.6,14.7619,3056.01,43.323,2:06:09.000,2005-01-02 10:32:56
56036,Charging,1454.6,14.7668,3073.75,43.585,2:06:53.000,2005-01-02 10:33:40
56080,Charging,1454.6,14.7693,3091.49,43.8471,2:07:37.000,2005-01-02 10:34:24
56124,Charging,1454.6,14.7743,3109.23,44.1092,2:08:21.000,2005-01-02 10:35:08
56168,Charging,1454.6,14.7792,3126.98,44.3724,2:09:05.000,2005-01-02 10:35:52
56212,Charging,1454.6,14.7817,3144.72,44.6359,2:09:49.000,2005-01-02 10:36:36
56256,Charging,1454.6,14.7891,3162.46,44.8994,2:10:33.000,2005-01-02 10:37:20
56300,Charging,1454.6,14.7916,3180.2,45.1629,2:11:17.000,2005-01-02 10:38:04
56344,Charging,1454.6,14.7966,3197.94,45.4264,2:12:01.000,2005-01-02 10:38:48
56388,Charging,1454.6,14.8015,3215.68,45.69,2:12:45.000,2005-01-02 10:39:32
56432,Charging,1454.6,14.8065,3233.42,45.9535,2:13:29.000,2005-01-02 10:40:16
56476,Charging,1454.6,14.8115,3251.16,46.217,2:14:13.000,2005-01-02 10:41:00
56520,Charging,1454.6,14.8139,3268.9,46.4805,2:14:57.000,2005-01-02 10:41:44
56564,Charging,1454.6,14.8189,3286.64,46.744,2:15:41.000,2005-01-02 10:42:28
56608,Charging,1456.4,14.8239,3304.38,47.0076,2:16:25.000,2005-01-02 10:43:12
56652,Charging,1454.6,14.8263,3322.12,47.2711,2:17:09.000,2005-01-02 10:43:56
56696,Charging,1454.6,14.8313,3339.85,47.5346,2:17:53.000,2005-01-02 10:44:40
56740,Charging,1454.6,14.8363,3357.6,47.7981,2:18:37.000,2005-01-02 10:45:24
56784,Charging,1454.6,14.8412,3375.33,48.0616,2:19:21.000,2005-01-02 10:46:08
56828,Charging,1454.6,14.8437,3393.07,48.3251,2:20:05.000,2005-01-02 10:46:52
56872,Charging,1454.6,14.8487,3410.81,48.5887,2:20:49.000,2005-01-02 10:47:36
56916,Charging,1456.4,14.8536,3428.55,48.8523,2:21:33.000,2005-01-02 10:48:20
56960,Charging,1454.6,14.8586,3446.29,49.116,2:22:17.000,2005-01-02 10:49:04
57004,Charging,1454.6,14.8635,3464.03,49.3796,2:23:01.000,2005-01-02 10:49:48
57048,Charging,1454.6,14.8685,3481.77,49.6433,2:23:45.000,2005-01-02 10:50:32
57092,Charging,1454.6,14.8735,3499.5,49.9078,2:24:29.000,2005-01-02 10:51:16
57136,Charging,1454.6,14.8759,3517.24,50.173,2:25:13.000,2005-01-02 10:52:00
57180,Charging,1454.6,14.8809,3534.98,50.4382,2:25:57.000,2005-01-02 10:52:44
57224,Charging,1454.6,14.8859,3552.72,50.7034,2:26:41.000,2005-01-02 10:53:28
57268,Charging,1454.6,14.8958,3570.46,50.9686,2:27:25.000,2005-01-02 10:54:12
57312,Charging,1456.4,14.9007,3588.208,51.2338,2:28:09.000,2005-01-02 10:54:56
57356,Charging,1454.6,14.9032,3605.94,51.499,2:28:53.000,2005-01-02 10:55:40
57400,Charging,1454.6,14.9107,3623.67,51.7641,2:29:37.000,2005-01-02 10:56:24
57444,Charging,1454.6,14.9156,3641.4,52.0293,2:30:21.000,2005-01-02 10:57:08
57488,Charging,1454.6,14.9206,3659.13,52.2945,2:31:05.000,2005-01-02 10:57:52
57532,Charging,1454.6,14.9255,3676.86,52.5597,2:31:49.000,2005-01-02 10:58:36
57576,Charging,1454.6,14.9305,3694.59,52.8249,2:32:33.000,2005-01-02 10:59:20
57620,Charging,1454.6,14.9355,3712.32,53.0901,2:33:17.000,2005-01-02 11:00:04
57664,Charging,1454.6,14.9404,3730.05,53.3553,2:34:01.000,2005-01-02 11:00:48
57708,Charging,1456.4,14.9454,3747.78,53.62048,2:34:45.000,2005-01-02 11:01:32
57752,Charging,1454.6,14.9503,3765.51,53.8857,2:35:29.000,2005-01-02 11:02:16
57796,Charging,1454.6,14.9553,3783.24,54.1509,2:36:13.000,2005-01-02 11:03:00
57840,Charging,1450.8,14.9603,3800.97,54.4161,2:36:57.000,2005-01-02 11:03:44
57884,Charging,1454.6,14.9677,3818.7,54.6822,2:37:41.000,2005-01-02 11:04:28
57928,Charging,1454.6,14.9727,3836.43,54.9491,2:38:25.000,2005-01-02 11:05:12
57972,Charging,1454.6,14.9776,3854.16,55.2159,2:39:09.000,2005-01-02 11:05:56
58016,Charging,1454.6,14.9851,3871.89,55.48272,2:39:53.000,2005-01-02 11:06:40
58060,Charging,1454.6,14.99,3889.62,55.7495,2:40:37.000,2005-01-02 11:07:24
58104,Charging,1456.4,14.9975,3907.35,56.0164,2:41:21.000,2005-01-02 11:08:08
58148,Charging,1454.6,15.0024,3925.08,56.2832,2:42:05.000,2005-01-02 11:08:52
58192,Charging,1454.6,15.0099,3942.81,56.5501,2:42:49.000,2005-01-02 11:09:36
58236,Charging,1454.6,15.0148,3960.54,56.8169,2:43:33.000,2005-01-02 11:10:20
58280,Charging,1454.6,15.0223,3978.27,57.0838,2:44:17.000,2005-01-02 11:11:04
58324,Charging,1454.6,15.0272,3996,57.3507,2:45:01.000,2005-01-02 11:11:48
58368,Charging,1454.6,15.0347,4013.81,57.6176,2:45:45.000,2005-01-02 11:12:32
58412,Charging,1454.6,15.0396,4031.64,57.8844,2:46:29.000,2005-01-02 11:13:16
58456,Charging,1454.6,15.0471,4049.48,58.1514,2:47:13.000,2005-01-02 11:14:00
58500,Charging,1454.6,15.052,4067.31,58.4182,2:47:57.000,2005-01-02 11:14:44
58544,Charging,1454.6,15.0595,4085.15,58.6854,2:48:41.000,2005-01-02 11:15:28
58588,Charging,1454.6,15.0669,4102.98,58.95392,2:49:25.000,2005-01-02 11:16:12
58632,Charging,1454.6,15.0719,4120.81,59.2224,2:50:09.000,2005-01-02 11:16:56
58676,Charging,1454.6,15.0793,4138.65,59.491,2:50:53.000,2005-01-02 11:17:40
58720,Charging,1454.6,15.0843,4156.48,59.7595,2:51:37.000,2005-01-02 11:18:24
58764,Charging,1454.6,15.0917,4174.31,60.0281,2:52:21.000,2005-01-02 11:19:08
58808,Charging,1454.6,15.0967,4192.15,60.2966,2:53:05.000,2005-01-02 11:19:52
58852,Charging,1454.6,15.1066,4209.98,60.5652,2:53:49.000,2005-01-02 11:20:36
58896,Charging,1454.6,15.114,4227.82,60.8337,2:54:33.000,2005-01-02 11:21:20
58940,Charging,1454.6,15.1215,4245.65,61.1023,2:55:17.000,2005-01-02 11:22:04
58984,Charging,1454.6,15.1289,4263.48,61.3709,2:56:01.000,2005-01-02 11:22:48
59028,Charging,1454.6,15.1339,4281.316,61.6394,2:56:45.000,2005-01-02 11:23:32
59072,Charging,1454.6,15.1413,4299.15,61.9081,2:57:29.000,2005-01-02 11:24:16
59116,Charging,1454.6,15.1488,4316.984,62.1768,2:58:13.000,2005-01-02 11:25:00
59160,Charging,1454.6,15.1562,4334.82,62.4463,2:58:57.000,2005-01-02 11:25:44
59204,Charging,1454.6,15.1636,4352.65,62.7165,2:59:41.000,2005-01-02 11:26:28
59248,Charging,1454.6,15.1711,4370.48,62.9868,3:00:25.000,2005-01-02 11:27:12
59292,Charging,1454.6,15.1785,4388.32,63.257,3:01:09.000,2005-01-02 11:27:56
59336,Charging,1454.6,15.186,4406.152,63.5272,3:01:53.000,2005-01-02 11:28:40
59380,Charging,1454.6,15.1934,4423.99,63.7975,3:02:37.000,2005-01-02 11:29:24
59424,Charging,1454.6,15.2008,4441.82,64.0676,3:03:21.000,2005-01-02 11:30:08
59468,Charging,1454.6,15.2108,4459.65,64.3395,3:04:05.000,2005-01-02 11:30:52
59512,Charging,1454.6,15.2182,4477.49,64.6114,3:04:49.000,2005-01-02 11:31:36
59556,Charging,1456.4,15.2256,4495.32,64.8834,3:05:33.000,2005-01-02 11:32:20
59600,Charging,1454.6,15.2331,4513.15,65.1553,3:06:17.000,2005-01-02 11:33:04
59644,Charging,1454.6,15.2405,4530.99,65.4272,3:07:01.000,2005-01-02 11:33:48
59688,Charging,1454.6,15.248,4548.82,65.6991,3:07:45.000,2005-01-02 11:34:32
59732,Charging,1454.6,15.2554,4566.656,65.971,3:08:29.000,2005-01-02 11:35:16
59776,Charging,1456.4,15.2628,4584.49,66.2429,3:09:13.000,2005-01-02 11:36:00
59820,Charging,1454.6,15.2703,4602.32,66.5148,3:09:57.000,2005-01-02 11:36:44
59864,Charging,1454.6,15.2777,4620.16,66.7867,3:10:41.000,2005-01-02 11:37:28
59908,Charging,1454.6,15.2876,4637.99,67.0586,3:11:25.000,2005-01-02 11:38:12
59952,Charging,1454.6,15.2951,4655.824,67.3306,3:12:09.000,2005-01-02 11:38:56
59996,Charging,1454.6,15.3025,4673.66,67.6025,3:12:53.000,2005-01-02 11:39:40
60040,Charging,1454.6,15.3125,4691.49,67.8744,3:13:37.000,2005-01-02 11:40:24
60084,Charging,1454.6,15.3224,4709.32,68.1463,3:14:21.000,2005-01-02 11:41:08
60128,Charging,1454.6,15.3323,4727.16,68.4182,3:15:05.000,2005-01-02 11:41:52
60172,Charging,1454.6,15.3397,4744.99,68.6901,3:15:49.000,2005-01-02 11:42:36
60216,Charging,1454.6,15.3447,4762.83,68.962,3:16:33.000,2005-01-02 11:43:20
60260,Charging,1454.6,15.3546,4780.66,69.2339,3:17:17.000,2005-01-02 11:44:04
60304,Charging,1454.6,15.3621,4798.49,69.5058,3:18:01.000,2005-01-02 11:44:48
60348,Charging,1454.6,15.3695,4816.328,69.7778,3:18:45.000,2005-01-02 11:45:32
60392,Charging,1454.6,15.3794,4834.16,70.0497,3:19:29.000,2005-01-02 11:46:16
60436,Charging,1454.6,15.3869,4852,70.3216,3:20:13.000,2005-01-02 11:47:00
60480,Charging,1454.6,15.3943,4869.83,70.5956,3:20:57.000,2005-01-02 11:47:44
60524,Charging,1454.6,15.4017,4887.66,70.8706,3:21:41.000,2005-01-02 11:48:28
60568,Charging,1454.6,15.4092,4905.496,71.1456,3:22:25.000,2005-01-02 11:49:12
60612,Charging,1454.6,15.4191,4923.33,71.4207,3:23:09.000,2005-01-02 11:49:56
60656,Charging,1454.6,15.4265,4941.164,71.6958,3:23:53.000,2005-01-02 11:50:40
60700,Charging,1454.6,15.4365,4959,71.9709,3:24:37.000,2005-01-02 11:51:24
60744,Charging,1454.6,15.4439,4976.83,72.2462,3:25:21.000,2005-01-02 11:52:08
60788,Charging,1454.6,15.4513,4994.66,72.5215,3:26:05.000,2005-01-02 11:52:52
60832,Charging,1454.6,15.4613,5012.5,72.7967,3:26:49.000,2005-01-02 11:53:36
60876,Charging,1454.6,15.4662,5030.33,73.072,3:27:33.000,2005-01-02 11:54:20
60920,Charging,1454.6,15.4761,5048.17,73.3473,3:28:17.000,2005-01-02 11:55:04
60964,Charging,1454.6,15.4836,5066,73.6225,3:29:01.000,2005-01-02 11:55:48
61008,Charging,1454.6,15.491,5083.83,73.8978,3:29:45.000,2005-01-02 11:56:32
61052,Charging,1454.6,15.4985,5101.67,74.1731,3:30:29.000,2005-01-02 11:57:16
61096,Charging,1454.6,15.5059,5119.5,74.4484,3:31:13.000,2005-01-02 11:58:00
61140,Charging,1454.6,15.5158,5137.33,74.7236,3:31:57.000,2005-01-02 11:58:44
61184,Charging,1454.6,15.5257,5155.17,74.9989,3:32:41.000,2005-01-02 11:59:28
61228,Charging,1454.6,15.5307,5173,75.2742,3:33:25.000,2005-01-02 12:00:12
61272,Charging,1454.6,15.5406,5190.84,75.5494,3:34:09.000,2005-01-02 12:00:56
61316,Charging,1454.6,15.5481,5208.67,75.8247,3:34:53.000,2005-01-02 12:01:40
61360,Charging,1454.6,15.5555,5226.5,76.1,3:35:37.000,2005-01-02 12:02:24
61404,Charging,1454.6,15.5629,5244.34,76.3752,3:36:21.000,2005-01-02 12:03:08
61448,Charging,1454.6,15.5704,5262.17,76.6505,3:37:05.000,2005-01-02 12:03:52
61492,Charging,1454.6,15.5778,5280.004,76.9259,3:37:49.000,2005-01-02 12:04:36
61536,Charging,1454.6,15.5853,5297.84,77.2044,3:38:33.000,2005-01-02 12:05:20
61580,Charging,1454.6,15.5902,5315.67,77.483,3:39:17.000,2005-01-02 12:06:04
61624,Charging,1454.6,15.5977,5333.51,77.7616,3:40:01.000,2005-01-02 12:06:48
61668,Charging,1454.6,15.6051,5351.34,78.0402,3:40:45.000,2005-01-02 12:07:32
61712,Charging,1454.6,15.6125,5369.17,78.3189,3:41:29.000,2005-01-02 12:08:16
61756,Charging,1454.6,15.6175,5387.01,78.5975,3:42:13.000,2005-01-02 12:09:00
61800,Charging,1454.6,15.6299,5404.84,78.8761,3:42:57.000,2005-01-02 12:09:44
61844,Charging,1454.6,15.6349,5422.67,79.1547,3:43:41.000,2005-01-02 12:10:28
61888,Charging,1454.6,15.6423,5440.51,79.4334,3:44:25.000,2005-01-02 12:11:12
61932,Charging,1454.6,15.6498,5458.34,79.712,3:45:09.000,2005-01-02 12:11:56
61976,Charging,1454.6,15.6572,5476.17,79.9906,3:45:53.000,2005-01-02 12:12:40
62020,Charging,1454.6,15.6622,5494.01,80.2692,3:46:37.000,2005-01-02 12:13:24
62064,Charging,1454.6,15.6696,5511.84,80.5479,3:47:21.000,2005-01-02 12:14:08
62108,Charging,1454.6,15.677,5529.676,80.8265,3:48:05.000,2005-01-02 12:14:52
62152,Charging,1454.6,15.682,5547.51,81.1051,3:48:49.000,2005-01-02 12:15:36
62196,Charging,1454.6,15.6894,5565.34,81.3837,3:49:33.000,2005-01-02 12:16:20
62240,Charging,1454.6,15.6944,5583.18,81.6624,3:50:17.000,2005-01-02 12:17:04
62284,Charging,1454.6,15.7018,5601.01,81.941,3:51:01.000,2005-01-02 12:17:48
62328,Charging,1454.6,15.7093,5618.84,82.2196,3:51:45.000,2005-01-02 12:18:32
62372,Charging,1454.6,15.7142,5636.68,82.4982,3:52:29.000,2005-01-02 12:19:16
62416,Charging,1454.6,15.7217,5654.51,82.7769,3:53:13.000,2005-01-02 12:20:00
62460,Charging,1454.6,15.7316,5672.35,83.0555,3:53:57.000,2005-01-02 12:20:44
62504,Charging,1454.6,15.7366,5690.18,83.3341,3:54:41.000,2005-01-02 12:21:28
62548,Charging,1454.6,15.744,5708.01,83.6127,3:55:25.000,2005-01-02 12:22:12
62592,Charging,1454.6,15.7514,5725.85,83.8915,3:56:09.000,2005-01-02 12:22:56
62636,Charging,1454.6,15.7564,5743.68,84.1704,3:56:53.000,2005-01-02 12:23:40
62680,Charging,1454.6,15.7614,5761.51,84.4492,3:57:37.000,2005-01-02 12:24:24
62724,Charging,1454.6,15.7688,5779.35,84.72864,3:58:21.000,2005-01-02 12:25:08
62768,Charging,1454.6,15.7738,5797.18,85.0106,3:59:05.000,2005-01-02 12:25:52
62812,Charging,1454.6,15.7812,5815.02,85.2926,3:59:49.000,2005-01-02 12:26:36
62856,Charging,1454.6,15.7886,5832.85,85.5746,4:00:33.000,2005-01-02 12:27:20
62900,Charging,1454.6,15.7936,5850.68,85.8566,4:01:17.000,2005-01-02 12:28:04
62944,Charging,1454.6,15.7986,5868.52,86.1385,4:02:01.000,2005-01-02 12:28:48
62988,Charging,1454.6,15.8085,5886.35,86.4205,4:02:45.000,2005-01-02 12:29:32
63032,Charging,1454.6,15.8134,5904.184,86.7025,4:03:29.000,2005-01-02 12:30:16
63076,Charging,1454.6,15.8184,5922.02,86.9845,4:04:13.000,2005-01-02 12:31:00
63120,Charging,1454.6,15.8234,5939.85,87.2665,4:04:57.000,2005-01-02 12:31:44
63164,Charging,1454.6,15.8333,5957.68,87.5484,4:05:41.000,2005-01-02 12:32:28
63208,Charging,1454.6,15.8382,5975.52,87.8304,4:06:25.000,2005-01-02 12:33:12
63252,Charging,1454.6,15.8457,5993.352,88.1124,4:07:09.000,2005-01-02 12:33:56
63296,Charging,1454.6,15.8506,6011.19,88.3944,4:07:53.000,2005-01-02 12:34:40
63340,Charging,1454.6,15.8556,6029.02,88.6764,4:08:37.000,2005-01-02 12:35:24
63384,Charging,1454.6,15.863,6046.85,88.9583,4:09:21.000,2005-01-02 12:36:08
63428,Charging,1450.8,15.8705,6064.688,89.2403,4:10:05.000,2005-01-02 12:36:52
63472,Charging,1450.8,15.8754,6082.52,89.5223,4:10:49.000,2005-01-02 12:37:36
63516,Charging,1454.6,15.8804,6100.36,89.8043,4:11:33.000,2005-01-02 12:38:20
63560,Charging,1454.6,15.8878,6118.19,90.0863,4:12:17.000,2005-01-02 12:39:04
63604,Charging,1454.6,15.8928,6136.02,90.3683,4:13:01.000,2005-01-02 12:39:48
63648,Charging,1454.6,15.9002,6153.86,90.6502,4:13:45.000,2005-01-02 12:40:32
63692,Charging,1454.6,15.9052,6171.69,90.9322,4:14:29.000,2005-01-02 12:41:16
63736,Charging,1454.6,15.9126,6189.52,91.2142,4:15:13.000,2005-01-02 12:42:00
63780,Charging,1454.6,15.9176,6207.36,91.4962,4:15:57.000,2005-01-02 12:42:44
63824,Charging,1454.6,15.925,6225.19,91.7782,4:16:41.000,2005-01-02 12:43:28
63868,Charging,1454.6,15.93,6243.024,92.0602,4:17:25.000,2005-01-02 12:44:12
63912,Charging,1454.6,15.9399,6260.86,92.3421,4:18:09.000,2005-01-02 12:44:56
63956,Charging,1454.6,15.9449,6278.69,92.6241,4:18:53.000,2005-01-02 12:45:40
64000,Charging,1454.6,15.9499,6296.53,92.9062,4:19:37.000,2005-01-02 12:46:24
64044,Charging,1454.6,15.9573,6314.36,93.1889,4:20:21.000,2005-01-02 12:47:08
64088,Charging,1454.6,15.9623,6332.19,93.474,4:21:05.000,2005-01-02 12:47:52
64132,Charging,1454.6,15.9697,6350.03,93.7592,4:21:49.000,2005-01-02 12:48:36
64176,Charging,1454.6,15.9771,6367.86,94.0444,4:22:33.000,2005-01-02 12:49:20
64220,Charging,1454.6,15.9821,6385.69,94.3297,4:23:17.000,2005-01-02 12:50:04
64264,Charging,1454.6,15.9895,6403.528,94.6149,4:24:01.000,2005-01-02 12:50:48
64308,Charging,1454.6,15.997,6421.36,94.9001,4:24:45.000,2005-01-02 12:51:32
64352,Charging,1454.6,16.0019,6439.2,95.1854,4:25:29.000,2005-01-02 12:52:16
64396,Charging,1454.6,16.0119,6457.03,95.4707,4:26:13.000,2005-01-02 12:53:00
64440,Charging,1454.6,16.0168,6474.86,95.7561,4:26:57.000,2005-01-02 12:53:44
64484,Charging,1454.6,16.0218,6492.7,96.0414,4:27:41.000,2005-01-02 12:54:28
64528,Charging,1454.6,16.0267,6510.53,96.3268,4:28:25.000,2005-01-02 12:55:12
64572,Charging,1454.6,16.0342,6528.364,96.6121,4:29:09.000,2005-01-02 12:55:56
64616,Charging,1454.6,16.0441,6546.2,96.8974,4:29:53.000,2005-01-02 12:56:40
64660,Charging,1454.6,16.0515,6564.03,97.1828,4:30:37.000,2005-01-02 12:57:24
64704,Charging,1454.6,16.059,6581.86,97.4681,4:31:21.000,2005-01-02 12:58:08
64748,Charging,1454.6,16.0639,6599.7,97.7535,4:32:05.000,2005-01-02 12:58:52
64792,Charging,1456.4,16.0714,6617.53,98.0388,4:32:49.000,2005-01-02 12:59:36
64836,Charging,1454.6,16.0788,6635.37,98.3241,4:33:33.000,2005-01-02 13:00:20
64880,Charging,1454.6,16.0863,6653.2,98.6095,4:34:17.000,2005-01-02 13:01:04
64924,Charging,1454.6,16.0937,6671.03,98.8948,4:35:01.000,2005-01-02 13:01:48
64968,Charging,1454.6,16.1011,6688.87,99.1802,4:35:45.000,2005-01-02 13:02:32
65012,Charging,1454.6,16.1086,6706.7,99.4655,4:36:29.000,2005-01-02 13:03:16
65056,Charging,1454.6,16.116,6724.53,99.7508,4:37:13.000,2005-01-02 13:04:00
65100,Charging,1454.6,16.1235,6742.37,100.036,4:37:57.000,2005-01-02 13:04:44
65144,Charging,1454.6,16.1309,6760.2,100.322,4:38:41.000,2005-01-02 13:05:28
65188,Charging,1454.6,16.1383,6778.04,100.607,4:39:25.000,2005-01-02 13:06:12
65232,Charging,1454.6,16.1483,6795.87,100.893,4:40:09.000,2005-01-02 13:06:56
65276,Charging,1454.6,16.1557,6813.7,101.182,4:40:53.000,2005-01-02 13:07:40
65320,Charging,1450.8,16.1631,6831.54,101.471,4:41:37.000,2005-01-02 13:08:24
65364,Charging,1454.6,16.1731,6849.37,101.759,4:42:21.000,2005-01-02 13:09:08
65408,Charging,1454.6,16.1805,6867.2,102.048,4:43:05.000,2005-01-02 13:09:52
65452,Charging,1454.6,16.1879,6885.04,102.337,4:43:49.000,2005-01-02 13:10:36
65496,Charging,1454.6,16.1954,6902.87,102.626,4:44:33.000,2005-01-02 13:11:20
65540,Charging,1454.6,16.2053,6920.71,102.914,4:45:17.000,2005-01-02 13:12:04
65584,Charging,1454.6,16.2127,6938.54,103.203,4:46:01.000,2005-01-02 13:12:48
65628,Charging,1454.6,16.2202,6956.37,103.492,4:46:45.000,2005-01-02 13:13:32
65672,Charging,1454.6,16.2276,6974.21,103.78,4:47:29.000,2005-01-02 13:14:16
65716,Charging,1454.6,16.2375,6992.04,104.069,4:48:13.000,2005-01-02 13:15:00
65760,Charging,1454.6,16.245,7009.87,104.358,4:48:57.000,2005-01-02 13:15:44
65804,Charging,1456.4,16.2549,7027.71,104.646,4:49:41.000,2005-01-02 13:16:28
65848,Charging,1454.6,16.2673,7045.54,104.935,4:50:25.000,2005-01-02 13:17:12
65892,Charging,1454.6,16.2748,7063.38,105.224,4:51:09.000,2005-01-02 13:17:56
65936,Charging,1454.6,16.2822,7081.21,105.512,4:51:53.000,2005-01-02 13:18:40
65980,Charging,1454.6,16.2896,7099.04,105.801,4:52:37.000,2005-01-02 13:19:24
66024,Charging,1454.6,16.2971,7116.876,106.09,4:53:21.000,2005-01-02 13:20:08
66068,Charging,1454.6,16.307,7134.71,106.379,4:54:05.000,2005-01-02 13:20:52
66112,Charging,1454.6,16.3144,7152.54,106.667,4:54:49.000,2005-01-02 13:21:36
66156,Charging,1454.6,16.3244,7170.38,106.956,4:55:33.000,2005-01-02 13:22:20
66200,Charging,1450.8,16.3318,7188.21,107.245,4:56:17.000,2005-01-02 13:23:04
66244,Charging,1454.6,16.3392,7206.04,107.536,4:57:01.000,2005-01-02 13:23:48
66288,Charging,1454.6,16.3492,7223.88,107.828,4:57:45.000,2005-01-02 13:24:32
66332,Charging,1454.6,16.3591,7241.712,108.12,4:58:29.000,2005-01-02 13:25:16
66376,Charging,1450.8,16.369,7259.55,108.411,4:59:13.000,2005-01-02 13:26:00
66420,Charging,1454.6,16.3764,7277.38,108.703,4:59:57.000,2005-01-02 13:26:44
66464,Charging,1454.6,16.3839,7295.21,108.995,5:00:41.000,2005-01-02 13:27:28
66508,Charging,1454.6,16.3938,7313.05,109.287,5:01:25.000,2005-01-02 13:28:12
66552,Charging,1402.5,16.3938,7330.57,109.575,5:02:09.000,2005-01-02 13:28:56
66596,Charging,1350.4,16.3938,7347.404,109.85,5:02:53.000,2005-01-02 13:29:40
66640,Charging,1303.9,16.3938,7363.61,110.116,5:03:37.000,2005-01-02 13:30:24
66684,Charging,1263.0,16.3938,7379.31,110.373,5:04:21.000,2005-01-02 13:31:08
66728,Charging,1223.9,16.3938,7394.5,110.622,5:05:05.000,2005-01-02 13:31:52
66772,Charging,1186.7,16.3938,7409.22,110.863,5:05:49.000,2005-01-02 13:32:36
66816,Charging,1153.2,16.3938,7423.51,111.097,5:06:33.000,2005-01-02 13:33:20
66860,Charging,1117.9,16.3938,7437.38,111.325,5:07:17.000,2005-01-02 13:34:04
66904,Charging,1086.3,16.3938,7450.84,111.546,5:08:01.000,2005-01-02 13:34:48
66948,Charging,1054.6,16.3938,7463.94,111.761,5:08:45.000,2005-01-02 13:35:32
66992,Charging,1026.7,16.3938,7476.66,111.97,5:09:29.000,2005-01-02 13:36:16
67036,Charging,1000.7,16.3938,7489.06,112.173,5:10:13.000,2005-01-02 13:37:00
67080,Charging,974.7,16.3938,7501.12,112.371,5:10:57.000,2005-01-02 13:37:44
67124,Charging,946.8,16.3938,7512.864,112.564,5:11:41.000,2005-01-02 13:38:28
67168,Charging,922.6,16.3938,7524.31,112.751,5:12:25.000,2005-01-02 13:39:12
67212,Charging,898.4,16.3938,7535.44,112.933,5:13:09.000,2005-01-02 13:39:56
67256,Charging,868.6,16.3938,7546.27,113.11,5:13:53.000,2005-01-02 13:40:40
67300,Charging,863.0,16.3938,7556.784,113.283,5:14:37.000,2005-01-02 13:41:24
67344,Charging,840.7,16.3938,7567.184,113.454,5:15:21.000,2005-01-02 13:42:08
67388,Charging,818.4,16.3938,7577.33,113.62,5:16:05.000,2005-01-02 13:42:52
67432,Charging,799.8,16.3938,7587.23,113.782,5:16:49.000,2005-01-02 13:43:36
67476,Charging,779.3,16.3938,7596.89,113.941,5:17:33.000,2005-01-02 13:44:20
67520,Charging,762.6,16.3938,7606.304,114.096,5:18:17.000,2005-01-02 13:45:04
67564,Charging,745.9,16.3938,7615.5,114.247,5:19:01.000,2005-01-02 13:45:48
67608,Charging,727.3,16.3938,7624.48,114.394,5:19:45.000,2005-01-02 13:46:32
67652,Charging,710.5,16.3938,7633.28,114.539,5:20:29.000,2005-01-02 13:47:16
67696,Charging,697.5,16.3938,7641.88,114.68,5:21:13.000,2005-01-02 13:48:00
67740,Charging,682.6,16.3938,7650.28,114.817,5:21:57.000,2005-01-02 13:48:44
67784,Charging,665.9,16.3938,7658.52,114.953,5:22:41.000,2005-01-02 13:49:28
67828,Charging,651.0,16.3938,7666.58,115.085,5:23:25.000,2005-01-02 13:50:12
67872,Charging,639.8,16.3938,7674.48,115.214,5:24:09.000,2005-01-02 13:50:56
67916,Charging,625.0,16.3938,7682.23,115.342,5:24:53.000,2005-01-02 13:51:40
67960,Charging,613.8,16.3938,7689.79,115.466,5:25:37.000,2005-01-02 13:52:24
68004,Charging,598.9,16.3938,7697.2,115.587,5:26:21.000,2005-01-02 13:53:08
68048,Charging,589.6,16.3938,7704.47,115.707,5:27:05.000,2005-01-02 13:53:52
68092,Charging,576.6,16.3938,7711.61,115.824,5:27:49.000,2005-01-02 13:54:36
68136,Charging,565.4,16.3938,7718.552,115.938,5:28:33.000,2005-01-02 13:55:20
68180,Charging,556.1,16.3938,7725.44,116.05,5:29:17.000,2005-01-02 13:56:04
68224,Charging,543.1,16.3938,7732.15,116.161,5:30:01.000,2005-01-02 13:56:48
68268,Charging,535.7,16.3938,7738.76,116.268,5:30:45.000,2005-01-02 13:57:32
68312,Charging,526.4,16.3938,7745.26,116.375,5:31:29.000,2005-01-02 13:58:16
68356,Charging,517.1,16.3938,7751.59,116.479,5:32:13.000,2005-01-02 13:59:00
68400,Charging,505.9,16.3938,7757.86,116.581,5:32:57.000,2005-01-02 13:59:44
68444,Charging,496.6,16.3938,7763.94,116.682,5:33:41.000,2005-01-02 14:00:28
68488,Charging,489.2,16.3938,7769.98,116.781,5:34:25.000,2005-01-02 14:01:12
68532,Charging,481.7,16.3938,7775.85,116.878,5:35:09.000,2005-01-02 14:01:56
68576,Charging,472.4,16.3938,7781.728,116.973,5:35:53.000,2005-01-02 14:02:40
68620,Charging,465.0,16.3938,7787.4,117.067,5:36:37.000,2005-01-02 14:03:24
68664,Charging,457.5,16.3938,7793.07,117.159,5:37:21.000,2005-01-02 14:04:08
68708,Charging,438.9,16.3938,7798.52,117.249,5:38:05.000,2005-01-02 14:04:52
68752,Charging,433.4,16.3938,7803.76,117.336,5:38:49.000,2005-01-02 14:05:36
68796,Charging,431.5,16.3938,7809.01,117.423,5:39:33.000,2005-01-02 14:06:20
68840,Charging,422.2,16.3938,7814.25,117.509,5:40:17.000,2005-01-02 14:07:04
68884,Charging,416.6,16.3938,7819.352,117.593,5:41:01.000,2005-01-02 14:07:48
68928,Charging,411.0,16.3938,7824.39,117.677,5:41:45.000,2005-01-02 14:08:32
68972,Charging,401.7,16.3938,7829.41,117.758,5:42:29.000,2005-01-02 14:09:16
69016,Charging,398.0,16.3938,7834.24,117.839,5:43:13.000,2005-01-02 14:10:00
69060,Charging,392.4,16.3938,7839.07,117.919,5:43:57.000,2005-01-02 14:10:44
69104,Charging,385.0,16.3938,7843.88,117.996,5:44:41.000,2005-01-02 14:11:28
69148,Charging,381.3,16.3938,7848.53,118.073,5:45:25.000,2005-01-02 14:12:12
69192,Charging,375.7,16.3938,7853.14,118.15,5:46:09.000,2005-01-02 14:12:56
69236,Charging,370.1,16.3938,7857.76,118.224,5:46:53.000,2005-01-02 14:13:40
69280,Charging,366.4,16.3938,7862.22,118.2976,5:47:37.000,2005-01-02 14:14:24
69324,Charging,362.7,16.3938,7866.63,118.371,5:48:21.000,2005-01-02 14:15:08
69368,Charging,357.1,16.3938,7871.03,118.444,5:49:05.000,2005-01-02 14:15:52
69412,Charging,355.2,16.3938,7875.4,118.514,5:49:49.000,2005-01-02 14:16:36
69456,Charging,347.8,16.3938,7879.608,118.585,5:50:33.000,2005-01-02 14:17:20
69500,Charging,344.1,16.3938,7883.8,118.655,5:51:17.000,2005-01-02 14:18:04
69544,Charging,342.2,16.3938,7888.0,118.723,5:52:01.000,2005-01-02 14:18:48
69588,Charging,338.5,16.3938,7892.2,118.7904,5:52:45.000,2005-01-02 14:19:32
69632,Charging,332.9,16.3938,7896.26,118.858,5:53:29.000,2005-01-02 14:20:16
69676,Charging,327.3,16.3938,7900.24,118.925,5:54:13.000,2005-01-02 14:21:00
69720,Charging,323.6,16.3938,7904.23,118.99,5:54:57.000,2005-01-02 14:21:44
69764,Charging,319.9,16.3938,7908.22,119.054,5:55:41.000,2005-01-02 14:22:28
69808,Charging,314.3,16.3938,7912.1,119.117,5:56:25.000,2005-01-02 14:23:12
69852,Charging,312.5,16.3938,7915.88,119.181,5:57:09.000,2005-01-02 14:23:56
69896,Charging,310.6,16.3938,7919.66,119.245,5:57:53.000,2005-01-02 14:24:40
69940,Charging,306.9,16.3938,7923.43,119.306,5:58:37.000,2005-01-02 14:25:24
69984,Charging,303.1,16.3938,7927.21,119.366,5:59:21.000,2005-01-02 14:26:08
70028,Charging,301.3,16.3938,7930.98,119.427,6:00:05.000,2005-01-02 14:26:52
70072,Charging,295.7,16.3938,7934.57,119.487,6:00:49.000,2005-01-02 14:27:36
70116,Charging,288.3,16.3963,7938.14,119.546,6:01:33.000,2005-01-02 14:28:20
70160,Charging,297.6,16.3938,7941.73,119.603,6:02:17.000,2005-01-02 14:29:04
70204,Charging,293.8,16.3938,7945.3,119.664,6:03:01.000,2005-01-02 14:29:48
70248,Charging,292.0,16.3938,7948.86,119.723,6:03:45.000,2005-01-02 14:30:32
70292,Charging,290.1,16.3938,7952.43,119.78,6:04:29.000,2005-01-02 14:31:16
70336,Charging,286.4,16.3938,7956,119.837,6:05:13.000,2005-01-02 14:32:00
70380,Charging,280.8,16.3938,7959.56,119.894,6:05:57.000,2005-01-02 14:32:44
70424,Charging,279.0,16.3938,7962.95,119.951,6:06:41.000,2005-01-02 14:33:28
70468,Charging,277.1,16.3938,7966.31,120.008,6:07:25.000,2005-01-02 14:34:12
70512,Charging,275.2,16.3938,7969.67,120.063,6:08:09.000,2005-01-02 14:34:56
70556,Charging,273.4,16.3938,7973.02,120.117,6:08:53.000,2005-01-02 14:35:40
70600,Charging,269.7,16.3938,7976.38,120.17,6:09:37.000,2005-01-02 14:36:24
70644,Charging,267.8,16.3938,7979.74,120.224,6:10:21.000,2005-01-02 14:37:08
70688,Charging,265.9,16.3938,7982.97,120.278,6:11:05.000,2005-01-02 14:37:52
70732,Charging,262.2,16.3938,7986.12,120.331,6:11:49.000,2005-01-02 14:38:36
70776,Charging,258.5,16.3938,7989.264,120.384,6:12:33.000,2005-01-02 14:39:20
70820,Charging,256.6,16.3938,7992.41,120.435,6:13:17.000,2005-01-02 14:40:04
70864,Charging,254.8,16.3938,7995.56,120.485,6:14:01.000,2005-01-02 14:40:48
70908,Charging,252.9,16.3938,7998.71,120.535,6:14:45.000,2005-01-02 14:41:32
70952,Charging,251.1,16.3938,8001.73,120.586,6:15:29.000,2005-01-02 14:42:16
70996,Charging,249.2,16.3938,8004.67,120.636,6:16:13.000,2005-01-02 14:43:00
71040,Charging,247.3,16.3938,8007.6,120.686,6:16:57.000,2005-01-02 14:43:44
71084,Charging,243.6,16.3938,8010.54,120.737,6:17:41.000,2005-01-02 14:44:28
71128,Charging,241.8,16.3938,8013.48,120.785,6:18:25.000,2005-01-02 14:45:12
71172,Charging,239.9,16.3938,8016.416,120.832,6:19:09.000,2005-01-02 14:45:56
71216,Charging,238.0,16.3938,8019.35,120.879,6:19:53.000,2005-01-02 14:46:40
71260,Charging,236.2,16.3938,8022.29,120.926,6:20:37.000,2005-01-02 14:47:24
71304,Charging,234.3,16.3938,8025.23,120.973,6:21:21.000,2005-01-02 14:48:08
71348,Charging,232.5,16.3938,8028.16,121.02,6:22:05.000,2005-01-02 14:48:52
71392,Charging,230.6,16.3938,8031.1,121.067,6:22:49.000,2005-01-02 14:49:36
71436,Charging,230.6,16.3938,8034.04,121.114,6:23:33.000,2005-01-02 14:50:20
71480,Charging,228.7,16.3938,8036.98,121.161,6:24:17.000,2005-01-02 14:51:04
71524,Charging,225.0,16.3938,8039.91,121.204,6:25:01.000,2005-01-02 14:51:48
71568,Charging,213.9,16.3938,8042.67,121.248,6:25:45.000,2005-01-02 14:52:32
71612,Charging,215.7,16.3938,8045.19,121.291,6:26:29.000,2005-01-02 14:53:16
71656,Charging,213.9,16.3938,8047.71,121.335,6:27:13.000,2005-01-02 14:54:00
71700,Charging,213.9,16.3938,8050.23,121.378,6:27:57.000,2005-01-02 14:54:44
71744,Charging,212.0,16.3938,8052.75,121.422,6:28:41.000,2005-01-02 14:55:28
71788,Charging,208.3,16.3938,8055.264,121.463,6:29:25.000,2005-01-02 14:56:12
71832,Charging,206.4,16.3938,8057.78,121.504,6:30:09.000,2005-01-02 14:56:56
71876,Charging,206.4,16.3938,8060.3,121.544,6:30:53.000,2005-01-02 14:57:40
71920,Charging,202.7,16.3938,8062.82,121.584,6:31:37.000,2005-01-02 14:58:24
71964,Charging,202.7,16.3938,8065.33,121.624,6:32:21.000,2005-01-02 14:59:08
72008,Charging,200.8,16.3938,8067.85,121.665,6:33:05.000,2005-01-02 14:59:52
72052,Charging,199.0,16.3938,8070.37,121.705,6:33:49.000,2005-01-02 15:00:36
72096,Charging,199.0,16.3938,8072.89,121.745,6:34:33.000,2005-01-02 15:01:20
72140,Charging,197.1,16.3938,8075.41,121.785,6:35:17.000,2005-01-02 15:02:04
72184,Charging,195.3,16.3938,8077.92,121.826,6:36:01.000,2005-01-02 15:02:48
72228,Charging,195.3,16.3938,8080.44,121.866,6:36:45.000,2005-01-02 15:03:32
72272,Charging,193.4,16.3938,8082.96,121.906,6:37:29.000,2005-01-02 15:04:16
72316,Charging,189.7,16.3938,8085.48,121.946,6:38:13.000,2005-01-02 15:05:00
72360,Charging,189.7,16.3938,8087.968,121.983,6:38:57.000,2005-01-02 15:05:44
72404,Charging,186.0,16.3938,8090.16,122.02,6:39:41.000,2005-01-02 15:06:28
72448,Charging,186.0,16.3938,8092.26,122.057,6:40:25.000,2005-01-02 15:07:12
72492,Charging,184.1,16.3938,8094.36,122.094,6:41:09.000,2005-01-02 15:07:56
72536,Charging,184.1,16.3938,8096.46,122.131,6:41:53.000,2005-01-02 15:08:40
72580,Charging,182.2,16.3938,8098.55,122.168,6:42:37.000,2005-01-02 15:09:24
72624,Charging,180.4,16.3938,8100.65,122.205,6:43:21.000,2005-01-02 15:10:08
72668,Charging,180.4,16.3938,8102.75,122.242,6:44:05.000,2005-01-02 15:10:52
72712,Charging,178.5,16.3938,8104.85,122.279,6:44:49.000,2005-01-02 15:11:36
72756,Charging,176.7,16.3938,8106.95,122.316,6:45:33.000,2005-01-02 15:12:20
72800,Charging,174.8,16.3938,8109.05,122.352,6:46:17.000,2005-01-02 15:13:04
72844,Charging,176.7,16.3938,8111.14,122.388,6:47:01.000,2005-01-02 15:13:48
72888,Charging,171.1,16.3938,8113.24,122.422,6:47:45.000,2005-01-02 15:14:32
72932,Charging,174.8,16.3938,8115.34,122.455,6:48:29.000,2005-01-02 15:15:16
72976,Charging,165.5,16.3938,8117.44,122.489,6:49:13.000,2005-01-02 15:16:00
73020,Charging,176.7,16.3938,8119.536,122.524,6:49:57.000,2005-01-02 15:16:44
73064,Charging,176.7,16.3938,8121.63,122.561,6:50:41.000,2005-01-02 15:17:28
73108,Charging,176.7,16.3938,8123.73,122.597,6:51:25.000,2005-01-02 15:18:12
73152,Charging,171.1,16.3938,8125.83,122.631,6:52:09.000,2005-01-02 15:18:56
73196,Charging,171.1,16.3938,8127.928,122.664,6:52:53.000,2005-01-02 15:19:40
73240,Charging,169.2,16.3938,8130.03,122.698,6:53:37.000,2005-01-02 15:20:24
73284,Charging,169.2,16.3938,8132.12,122.731,6:54:21.000,2005-01-02 15:21:08
73328,Charging,167.4,16.3938,8134.22,122.765,6:55:05.000,2005-01-02 15:21:52
73372,Charging,167.4,16.3938,8136.32,122.798,6:55:49.000,2005-01-02 15:22:36
73416,Charging,165.5,16.3938,8138.42,122.832,6:56:33.000,2005-01-02 15:23:20
73460,Charging,165.5,16.3938,8140.52,122.866,6:57:17.000,2005-01-02 15:24:04
73504,Charging,163.6,16.3938,8142.61,122.899,6:58:01.000,2005-01-02 15:24:48
73548,Charging,161.8,16.3938,8144.712,122.933,6:58:45.000,2005-01-02 15:25:32
73592,Charging,161.8,16.3938,8146.81,122.966,6:59:29.000,2005-01-02 15:26:16
73636,Charging,159.9,16.3938,8148.91,123,7:00:13.000,2005-01-02 15:27:00
73680,Charging,159.9,16.3938,8151.01,123.033,7:00:57.000,2005-01-02 15:27:44
73724,Charging,158.1,16.3938,8153.104,123.066,7:01:41.000,2005-01-02 15:28:28
73768,Charging,158.1,16.3938,8155.2,123.097,7:02:25.000,2005-01-02 15:29:12
73812,Charging,154.3,16.3938,8157.21,123.127,7:03:09.000,2005-01-02 15:29:56
73856,Charging,154.3,16.3938,8158.93,123.157,7:03:53.000,2005-01-02 15:30:40
73900,Charging,152.5,16.3938,8160.61,123.188,7:04:37.000,2005-01-02 15:31:24
73944,Charging,152.5,16.3938,8162.29,123.218,7:05:21.000,2005-01-02 15:32:08
73988,Charging,150.6,16.3938,8163.968,123.248,7:06:05.000,2005-01-02 15:32:52
74032,Charging,150.6,16.3938,8165.65,123.278,7:06:49.000,2005-01-02 15:33:36
74076,Charging,148.8,16.3938,8167.33,123.308,7:07:33.000,2005-01-02 15:34:20
74120,Charging,148.8,16.3938,8169,123.339,7:08:17.000,2005-01-02 15:35:04
74164,Charging,146.9,16.3938,8170.68,123.369,7:09:01.000,2005-01-02 15:35:48
74208,Charging,146.9,16.3938,8172.36,123.399,7:09:45.000,2005-01-02 15:36:32
74252,Charging,146.9,16.3938,8174.04,123.429,7:10:29.000,2005-01-02 15:37:16
74296,Charging,145.0,16.3938,8175.72,123.459,7:11:13.000,2005-01-02 15:38:00
74340,Charging,145.0,16.3938,8177.4,123.49,7:11:57.000,2005-01-02 15:38:44
74384,Charging,143.2,16.3938,8179.07,123.52,7:12:41.000,2005-01-02 15:39:28
74428,Charging,130.2,16.3938,8180.752,123.548,7:13:25.000,2005-01-02 15:40:12
74472,Charging,133.9,16.3938,8182.43,123.575,7:14:09.000,2005-01-02 15:40:56
74516,Charging,133.9,16.3938,8184.11,123.602,7:14:53.000,2005-01-02 15:41:40
74560,Charging,132.0,16.3938,8185.79,123.629,7:15:37.000,2005-01-02 15:42:24
74604,Charging,132.0,16.3938,8187.47,123.655,7:16:21.000,2005-01-02 15:43:08
74648,Charging,130.2,16.3938,8189.14,123.682,7:17:05.000,2005-01-02 15:43:52
74692,Charging,128.3,16.3938,8190.82,123.709,7:17:49.000,2005-01-02 15:44:36
74736,Charging,128.3,16.3938,8192.5,123.736,7:18:33.000,2005-01-02 15:45:20
74780,Charging,128.3,16.3963,8194.18,123.763,7:19:17.000,2005-01-02 15:46:04
74824,Charging,126.4,16.3938,8195.86,123.79,7:20:01.000,2005-01-02 15:46:48
74868,Charging,128.3,16.3938,8197.54,123.816,7:20:45.000,2005-01-02 15:47:32
74912,Charging,126.4,16.3938,8199.216,123.843,7:21:29.000,2005-01-02 15:48:16
74956,Charging,124.6,16.3938,8200.89,123.868,7:22:13.000,2005-01-02 15:49:00
75000,Charging,124.6,16.3938,8202.57,123.892,7:22:57.000,2005-01-02 15:49:44
75044,Charging,124.6,16.3938,8204.25,123.916,7:23:41.000,2005-01-02 15:50:28
75088,Charging,122.7,16.3938,8205.93,123.939,7:24:25.000,2005-01-02 15:51:12
75132,Charging,120.9,16.3938,8207.608,123.963,7:25:09.000,2005-01-02 15:51:56
75176,Charging,120.9,16.3938,8209.29,123.986,7:25:53.000,2005-01-02 15:52:40
75220,Charging,120.9,16.3938,8210.96,124.01,7:26:37.000,2005-01-02 15:53:24
75264,Charging,120.9,16.3938,8212.56,124.033,7:27:21.000,2005-01-02 15:54:08
75308,Charging,117.1,16.3938,8213.99,124.057,7:28:05.000,2005-01-02 15:54:52
75352,Charging,117.1,16.3938,8215.26,124.08,7:28:49.000,2005-01-02 15:55:36
75396,Charging,115.3,16.3938,8216.53,124.104,7:29:33.000,2005-01-02 15:56:20
75440,Charging,115.3,16.3938,8217.79,124.127,7:30:17.000,2005-01-02 15:57:04
75484,Charging,113.4,16.3938,8219.04,124.151,7:31:01.000,2005-01-02 15:57:48
75528,Charging,115.3,16.3938,8220.3,124.174,7:31:45.000,2005-01-02 15:58:32
75572,Charging,111.6,16.3938,8221.56,124.198,7:32:29.000,2005-01-02 15:59:16
75616,Charging,113.4,16.3938,8222.82,124.221,7:33:13.000,2005-01-02 16:00:00
75660,Charging,113.4,16.3938,8224.08,124.245,7:33:57.000,2005-01-02 16:00:44
75704,Charging,111.6,16.3938,8225.34,124.268,7:34:41.000,2005-01-02 16:01:28
75748,Charging,109.7,16.3938,8226.6,124.292,7:35:25.000,2005-01-02 16:02:12
75792,Charging,109.7,16.3938,8227.86,124.315,7:36:09.000,2005-01-02 16:02:56
75836,Charging,104.1,16.3938,8229.12,124.336,7:36:53.000,2005-01-02 16:03:40
75880,Charging,117.1,16.3938,8230.38,124.357,7:37:37.000,2005-01-02 16:04:24
75924,Charging,113.4,16.3938,8231.63,124.381,7:38:21.000,2005-01-02 16:05:08
75968,Charging,113.4,16.3938,8232.89,124.404,7:39:05.000,2005-01-02 16:05:52
76012,Charging,113.4,16.3938,8234.15,124.428,7:39:49.000,2005-01-02 16:06:36
76056,Charging,111.6,16.3938,8235.41,124.451,7:40:33.000,2005-01-02 16:07:20
76100,Charging,111.6,16.3938,8236.67,124.475,7:41:17.000,2005-01-02 16:08:04
76144,Charging,113.4,16.3938,8237.93,124.498,7:42:01.000,2005-01-02 16:08:48
76188,Charging,111.6,16.3938,8239.19,124.522,7:42:45.000,2005-01-02 16:09:32
76232,Charging,111.6,16.3938,8240.45,124.545,7:43:29.000,2005-01-02 16:10:16
76276,Charging,109.7,16.3938,8241.71,124.569,7:44:13.000,2005-01-02 16:11:00
76320,Charging,107.8,16.3938,8242.97,124.591,7:44:57.000,2005-01-02 16:11:44
76364,Charging,107.8,16.3938,8244.224,124.612,7:45:41.000,2005-01-02 16:12:28
76408,Charging,107.8,16.3938,8245.48,124.632,7:46:25.000,2005-01-02 16:13:12
76452,Charging,107.8,16.3938,8246.74,124.653,7:47:09.000,2005-01-02 16:13:56
76496,Charging,106.0,16.3938,8248.0,124.673,7:47:53.000,2005-01-02 16:14:40
76540,Charging,106.0,16.3938,8249.26,124.693,7:48:37.000,2005-01-02 16:15:24
76584,Charging,106.0,16.3938,8250.52,124.713,7:49:21.000,2005-01-02 16:16:08
76628,Charging,104.1,16.3938,8251.78,124.733,7:50:05.000,2005-01-02 16:16:52
76672,Charging,104.1,16.3938,8253.04,124.753,7:50:49.000,2005-01-02 16:17:36
76716,Charging,104.1,16.3938,8254.29,124.773,7:51:33.000,2005-01-02 16:18:20
76760,Charging,104.1,16.3938,8255.55,124.794,7:52:17.000,2005-01-02 16:19:04
76770,Charging,100.4,16.3938,8255.84,124.798,7:52:27.000,2005-01-02 16:19:14