File: Energy-Available/battery_curve/discharging_df_2.csv
Index,Status,Current(mA),Voltage(V),Capacity(mAh),Energy(Wh),RelaTime(h:min:s.ms),AbsoTime(h:min:s.ms)
77375,Discharging,-965.4,16.2574,0.241111,0.0039325,0:00:01.000,2005-01-02 16:29:16
77426,Discharging,-963.5,16.2326,13.9153,0.226026,0:00:52.000,2005-01-02 16:30:07
77477,Discharging,-965.4,16.2227,27.5884,0.447916,0:01:43.000,2005-01-02 16:30:58
77528,Discharging,-965.4,16.2152,41.262,0.669694,0:02:34.000,2005-01-02 16:31:49
77579,Discharging,-965.4,16.2103,54.9348,0.89137,0:03:25.000,2005-01-02 16:32:40
77630,Discharging,-965.4,16.2078,68.6089,1.11301,0:04:16.000,2005-01-02 16:33:31
77681,Discharging,-965.4,16.2028,82.2819,1.33458,0:05:07.000,2005-01-02 16:34:22
77732,Discharging,-965.4,16.1979,95.955,1.5561,0:05:58.000,2005-01-02 16:35:13
77783,Discharging,-965.4,16.1954,109.628,1.777574,0:06:49.000,2005-01-02 16:36:04
77834,Discharging,-965.4,16.1904,123.3,1.99898,0:07:40.000,2005-01-02 16:36:55
77885,Discharging,-965.4,16.1879,136.975,2.22035,0:08:31.000,2005-01-02 16:37:46
77936,Discharging,-965.4,16.1855,150.651,2.44171,0:09:22.000,2005-01-02 16:38:37
77987,Discharging,-965.4,16.183,164.327,2.66302,0:10:13.000,2005-01-02 16:39:28
78038,Discharging,-965.4,16.1805,178.003,2.88428,0:11:04.000,2005-01-02 16:40:19
78089,Discharging,-963.5,16.1755,191.68,3.105524,0:11:55.000,2005-01-02 16:41:10
78140,Discharging,-965.4,16.1731,205.356,3.32668,0:12:46.000,2005-01-02 16:42:01
78191,Discharging,-967.2,16.1706,219.032,3.54782,0:13:37.000,2005-01-02 16:42:52
78242,Discharging,-965.4,16.1681,232.709,3.76895,0:14:28.000,2005-01-02 16:43:43
78293,Discharging,-965.4,16.1656,246.386,3.99002,0:15:19.000,2005-01-02 16:44:34
78344,Discharging,-965.4,16.1607,260.0615,4.211032,0:16:10.000,2005-01-02 16:45:25
78395,Discharging,-965.4,16.1557,273.738,4.43207,0:17:01.000,2005-01-02 16:46:16
78446,Discharging,-965.4,16.1532,287.415,4.65298,0:17:52.000,2005-01-02 16:47:07
78497,Discharging,-965.4,16.1483,301.091,4.87382,0:18:43.000,2005-01-02 16:47:58
78548,Discharging,-965.4,16.1458,314.768,5.09463,0:19:34.000,2005-01-02 16:48:49
78599,Discharging,-965.4,16.1433,328.444,5.31541,0:20:25.000,2005-01-02 16:49:40
78650,Discharging,-965.4,16.1383,342.12,5.53618,0:21:16.000,2005-01-02 16:50:31
78701,Discharging,-965.4,16.1383,355.803,5.75705,0:22:07.000,2005-01-02 16:51:22
78752,Discharging,-967.2,16.1309,369.4905,5.9779,0:22:58.000,2005-01-02 16:52:13
78803,Discharging,-965.4,16.1259,383.181,6.198832,0:23:49.000,2005-01-02 16:53:04
78854,Discharging,-965.4,16.121,396.873,6.41966,0:24:40.000,2005-01-02 16:53:55
78905,Discharging,-967.2,16.1185,410.564,6.6404,0:25:31.000,2005-01-02 16:54:46
78956,Discharging,-967.2,16.1135,424.255,6.8611,0:26:22.000,2005-01-02 16:55:37
79007,Discharging,-965.4,16.1111,437.946,7.08179,0:27:13.000,2005-01-02 16:56:28
79058,Discharging,-967.2,16.1061,451.637,7.30241,0:28:04.000,2005-01-02 16:57:19
79109,Discharging,-967.2,16.1011,465.328,7.52293,0:28:55.000,2005-01-02 16:58:10
79160,Discharging,-965.4,16.0962,479.019,7.7434,0:29:46.000,2005-01-02 16:59:01
79211,Discharging,-967.2,16.0912,492.71,7.96387,0:30:37.000,2005-01-02 16:59:52
79262,Discharging,-967.2,16.0863,506.406,8.18412,0:31:28.000,2005-01-02 17:00:43
79313,Discharging,-967.2,16.0813,520.108,8.40432,0:32:19.000,2005-01-02 17:01:34
79364,Discharging,-965.4,16.0763,533.81,8.624528,0:33:10.000,2005-01-02 17:02:25
79415,Discharging,-967.2,16.0714,547.512,8.84473,0:34:01.000,2005-01-02 17:03:16
79466,Discharging,-967.2,16.0664,561.213,9.06492,0:34:52.000,2005-01-02 17:04:07
79517,Discharging,-965.4,16.0615,574.914,9.28505,0:35:43.000,2005-01-02 17:04:58
79568,Discharging,-967.2,16.0565,588.614,9.50486,0:36:34.000,2005-01-02 17:05:49
79619,Discharging,-965.4,16.0491,602.316,9.72458,0:37:25.000,2005-01-02 17:06:40
79670,Discharging,-967.2,16.0441,616.019,9.94431,0:38:16.000,2005-01-02 17:07:31
79721,Discharging,-965.4,16.0367,629.721,10.164,0:39:07.000,2005-01-02 17:08:22
79772,Discharging,-967.2,16.0317,643.424,10.3838,0:39:58.000,2005-01-02 17:09:13
79823,Discharging,-967.2,16.0267,657.127,10.6035,0:40:49.000,2005-01-02 17:10:04
79874,Discharging,-967.2,16.0193,670.829,10.8229,0:41:40.000,2005-01-02 17:10:55
79925,Discharging,-967.2,16.0143,684.532,11.0421,0:42:31.000,2005-01-02 17:11:46
79976,Discharging,-967.2,16.0094,698.236,11.2614,0:43:22.000,2005-01-02 17:12:37
80027,Discharging,-965.4,16.0019,711.937,11.4806,0:44:13.000,2005-01-02 17:13:28
80078,Discharging,-967.2,15.997,725.639,11.6999,0:45:04.000,2005-01-02 17:14:19
80129,Discharging,-965.4,15.9945,739.342,11.9191,0:45:55.000,2005-01-02 17:15:10
80180,Discharging,-965.4,15.9871,753.034,12.1381,0:46:46.000,2005-01-02 17:16:01
80231,Discharging,-965.4,15.9821,766.71,12.3566,0:47:37.000,2005-01-02 17:16:52
80282,Discharging,-965.4,15.9747,780.385,12.5749,0:48:28.000,2005-01-02 17:17:43
80333,Discharging,-963.5,15.9697,794.062,12.7933,0:49:19.000,2005-01-02 17:18:34
80384,Discharging,-965.4,15.9623,807.738,13.0116,0:50:10.000,2005-01-02 17:19:25
80435,Discharging,-965.4,15.9573,821.414,13.2299,0:51:01.000,2005-01-02 17:20:16
80486,Discharging,-965.4,15.9499,835.091,13.4482,0:51:52.000,2005-01-02 17:21:07
80537,Discharging,-965.4,15.9424,848.767,13.6662,0:52:43.000,2005-01-02 17:21:58
80588,Discharging,-965.4,15.9375,862.444,13.8841,0:53:34.000,2005-01-02 17:22:49
80639,Discharging,-965.4,15.93,876.122,14.102,0:54:25.000,2005-01-02 17:23:40
80690,Discharging,-965.4,15.9226,889.799,14.3198,0:55:16.000,2005-01-02 17:24:31
80741,Discharging,-965.4,15.9176,903.477,14.5376,0:56:07.000,2005-01-02 17:25:22
80792,Discharging,-965.4,15.9102,917.155,14.7553,0:56:58.000,2005-01-02 17:26:13
80843,Discharging,-965.4,15.9052,930.833,14.9727,0:57:49.000,2005-01-02 17:27:04
80894,Discharging,-965.4,15.8978,944.511,15.1901,0:58:40.000,2005-01-02 17:27:55
80945,Discharging,-965.4,15.8903,958.19,15.4075,0:59:31.000,2005-01-02 17:28:46
80996,Discharging,-963.5,15.8854,971.867,15.6248,1:00:22.000,2005-01-02 17:29:37
81047,Discharging,-967.2,15.8779,985.544,15.8421,1:01:13.000,2005-01-02 17:30:28
81098,Discharging,-965.4,15.873,999.223,16.0591,1:02:04.000,2005-01-02 17:31:19
81149,Discharging,-965.4,15.8655,1012.902,16.2761,1:02:55.000,2005-01-02 17:32:10
81200,Discharging,-965.4,15.8581,1026.58,16.493,1:03:46.000,2005-01-02 17:33:01
81251,Discharging,-965.4,15.8531,1040.26,16.7099,1:04:37.000,2005-01-02 17:33:52
81302,Discharging,-965.4,15.8457,1053.94,16.9267,1:05:28.000,2005-01-02 17:34:43
81353,Discharging,-965.4,15.8358,1067.62,17.1435,1:06:19.000,2005-01-02 17:35:34
81404,Discharging,-967.2,15.8308,1081.3,17.3602,1:07:10.000,2005-01-02 17:36:25
81455,Discharging,-965.4,15.8234,1094.98,17.5769,1:08:01.000,2005-01-02 17:37:16
81506,Discharging,-965.4,15.8159,1108.66,17.793,1:08:52.000,2005-01-02 17:38:07
81557,Discharging,-965.4,15.811,1122.34,18.0092,1:09:43.000,2005-01-02 17:38:58
81608,Discharging,-967.2,15.801,1136.02,18.2255,1:10:34.000,2005-01-02 17:39:49
81659,Discharging,-967.2,15.7961,1149.7,18.4423,1:11:25.000,2005-01-02 17:40:40
81710,Discharging,-965.4,15.7886,1163.37,18.6582,1:12:16.000,2005-01-02 17:41:31
81761,Discharging,-967.2,15.7812,1177.05,18.8742,1:13:07.000,2005-01-02 17:42:22
81812,Discharging,-967.2,15.7762,1190.73,19.0901,1:13:58.000,2005-01-02 17:43:13
81863,Discharging,-967.2,15.7688,1204.41,19.3061,1:14:49.000,2005-01-02 17:44:04
81914,Discharging,-967.2,15.7614,1218.09,19.522,1:15:40.000,2005-01-02 17:44:55
81965,Discharging,-967.2,15.7564,1231.772,19.738,1:16:31.000,2005-01-02 17:45:46
82016,Discharging,-965.4,15.749,1245.45,19.9537,1:17:22.000,2005-01-02 17:46:37
82067,Discharging,-967.2,15.744,1259.13,20.1695,1:18:13.000,2005-01-02 17:47:28
82118,Discharging,-965.4,15.7341,1272.81,20.3852,1:19:04.000,2005-01-02 17:48:19
82169,Discharging,-967.2,15.7291,1286.49,20.6009,1:19:55.000,2005-01-02 17:49:10
82220,Discharging,-967.2,15.7217,1300.17,20.8161,1:20:46.000,2005-01-02 17:50:01
82271,Discharging,-967.2,15.7142,1313.85,21.0311,1:21:37.000,2005-01-02 17:50:52
82322,Discharging,-965.4,15.7093,1327.53,21.2461,1:22:28.000,2005-01-02 17:51:43
82373,Discharging,-965.4,15.7018,1341.208,21.461,1:23:19.000,2005-01-02 17:52:34
82424,Discharging,-967.2,15.6969,1354.89,21.676,1:24:10.000,2005-01-02 17:53:25
82475,Discharging,-965.4,15.6894,1368.57,21.891,1:25:01.000,2005-01-02 17:54:16
82526,Discharging,-967.2,15.6845,1382.25,22.106,1:25:52.000,2005-01-02 17:55:07
82577,Discharging,-967.2,15.677,1395.93,22.3208,1:26:43.000,2005-01-02 17:55:58
82628,Discharging,-967.2,15.6721,1409.61,22.5356,1:27:34.000,2005-01-02 17:56:49
82679,Discharging,-967.2,15.6646,1423.286,22.7504,1:28:25.000,2005-01-02 17:57:40
82730,Discharging,-965.4,15.6597,1436.97,22.9652,1:29:16.000,2005-01-02 17:58:31
82781,Discharging,-967.2,15.6522,1450.65,23.18,1:30:07.000,2005-01-02 17:59:22
82832,Discharging,-967.2,15.6473,1464.33,23.394,1:30:58.000,2005-01-02 18:00:13
82883,Discharging,-967.2,15.6398,1478,23.608,1:31:49.000,2005-01-02 18:01:04
82934,Discharging,-967.2,15.6349,1491.68,23.822,1:32:40.000,2005-01-02 18:01:55
82985,Discharging,-967.2,15.6274,1505.36,24.036,1:33:31.000,2005-01-02 18:02:46
83036,Discharging,-965.4,15.625,1519.04,24.25,1:34:22.000,2005-01-02 18:03:37
83087,Discharging,-967.2,15.6175,1532.72,24.4639,1:35:13.000,2005-01-02 18:04:28
83138,Discharging,-965.4,15.6125,1546.4,24.6777,1:36:04.000,2005-01-02 18:05:19
83189,Discharging,-965.4,15.6076,1560.08,24.8911,1:36:55.000,2005-01-02 18:06:10
83240,Discharging,-967.2,15.6001,1573.76,25.1042,1:37:46.000,2005-01-02 18:07:01
83291,Discharging,-965.4,15.5952,1587.44,25.3173,1:38:37.000,2005-01-02 18:07:52
83342,Discharging,-965.4,15.5902,1601.12,25.5305,1:39:28.000,2005-01-02 18:08:43
83393,Discharging,-965.4,15.5853,1614.8,25.7436,1:40:19.000,2005-01-02 18:09:34
83444,Discharging,-963.5,15.5803,1628.48,25.9567,1:41:10.000,2005-01-02 18:10:25
83495,Discharging,-967.2,15.5753,1642.16,26.1697,1:42:01.000,2005-01-02 18:11:16
83546,Discharging,-963.5,15.5679,1655.84,26.3826,1:42:52.000,2005-01-02 18:12:07
83597,Discharging,-965.4,15.5629,1669.52,26.5955,1:43:43.000,2005-01-02 18:12:58
83648,Discharging,-965.4,15.558,1683.19,26.8084,1:44:34.000,2005-01-02 18:13:49
83699,Discharging,-967.2,15.553,1696.87,27.0213,1:45:25.000,2005-01-02 18:14:40
83750,Discharging,-965.4,15.5481,1710.55,27.2341,1:46:16.000,2005-01-02 18:15:31
83801,Discharging,-965.4,15.5431,1724.23,27.447,1:47:07.000,2005-01-02 18:16:22
83852,Discharging,-965.4,15.5381,1737.91,27.6592,1:47:58.000,2005-01-02 18:17:13
83903,Discharging,-965.4,15.5307,1751.59,27.8714,1:48:49.000,2005-01-02 18:18:04
83954,Discharging,-965.4,15.5233,1765.27,28.0836,1:49:40.000,2005-01-02 18:18:55
84005,Discharging,-965.4,15.5183,1778.95,28.2959,1:50:31.000,2005-01-02 18:19:46
84056,Discharging,-963.5,15.5133,1792.63,28.5081,1:51:22.000,2005-01-02 18:20:37
84107,Discharging,-965.4,15.5084,1806.31,28.7201,1:52:13.000,2005-01-02 18:21:28
84158,Discharging,-965.4,15.5034,1819.99,28.9322,1:53:04.000,2005-01-02 18:22:19
84209,Discharging,-965.4,15.496,1833.67,29.1442,1:53:55.000,2005-01-02 18:23:10
84260,Discharging,-963.5,15.491,1847.35,29.3561,1:54:46.000,2005-01-02 18:24:01
84311,Discharging,-965.4,15.4861,1861.02,29.568,1:55:37.000,2005-01-02 18:24:52
84362,Discharging,-965.4,15.4811,1874.704,29.7799,1:56:28.000,2005-01-02 18:25:43
84413,Discharging,-965.4,15.4761,1888.38,29.9919,1:57:19.000,2005-01-02 18:26:34
84464,Discharging,-965.4,15.4712,1902.06,30.2039,1:58:10.000,2005-01-02 18:27:25
84515,Discharging,-965.4,15.4637,1915.74,30.4158,1:59:01.000,2005-01-02 18:28:16
84566,Discharging,-967.2,15.4563,1929.42,30.6277,1:59:52.000,2005-01-02 18:29:07
84617,Discharging,-967.2,15.4513,1943.1,30.8396,2:00:43.000,2005-01-02 18:29:58
84668,Discharging,-965.4,15.4464,1956.78,31.0515,2:01:34.000,2005-01-02 18:30:49
84719,Discharging,-967.2,15.4389,1970.462,31.2632,2:02:25.000,2005-01-02 18:31:40
84770,Discharging,-967.2,15.434,1984.14,31.4743,2:03:16.000,2005-01-02 18:32:31
84821,Discharging,-965.4,15.429,1997.82,31.6854,2:04:07.000,2005-01-02 18:33:22
84872,Discharging,-967.2,15.4191,2011.53,31.89648,2:04:58.000,2005-01-02 18:34:13
84923,Discharging,-965.4,15.4141,2025.25,32.1079,2:05:49.000,2005-01-02 18:35:04
84974,Discharging,-967.2,15.4092,2038.97,32.3196,2:06:40.000,2005-01-02 18:35:55
85025,Discharging,-967.2,15.4017,2052.69,32.5307,2:07:31.000,2005-01-02 18:36:46
85076,Discharging,-967.2,15.3968,2066.41,32.7408,2:08:22.000,2005-01-02 18:37:37
85127,Discharging,-967.2,15.3918,2080.13,32.9509,2:09:13.000,2005-01-02 18:38:28
85178,Discharging,-967.2,15.3844,2093.86,33.161,2:10:04.000,2005-01-02 18:39:19
85229,Discharging,-965.4,15.3794,2107.57,33.3712,2:10:55.000,2005-01-02 18:40:10
85280,Discharging,-967.2,15.3745,2121.292,33.5813,2:11:46.000,2005-01-02 18:41:01
85331,Discharging,-967.2,15.367,2135.01,33.7914,2:12:37.000,2005-01-02 18:41:52
85382,Discharging,-965.4,15.3621,2148.73,34.0015,2:13:28.000,2005-01-02 18:42:43
85433,Discharging,-967.2,15.3546,2162.45,34.2117,2:14:19.000,2005-01-02 18:43:34
85484,Discharging,-967.2,15.3497,2176.176,34.4218,2:15:10.000,2005-01-02 18:44:25
85535,Discharging,-967.2,15.3447,2189.9,34.6319,2:16:01.000,2005-01-02 18:45:16
85586,Discharging,-967.2,15.3373,2203.63,34.842,2:16:52.000,2005-01-02 18:46:07
85637,Discharging,-967.2,15.3323,2217.34,35.05216,2:17:43.000,2005-01-02 18:46:58
85688,Discharging,-967.2,15.3249,2231.07,35.2623,2:18:34.000,2005-01-02 18:47:49
85739,Discharging,-967.2,15.3174,2244.8,35.4724,2:19:25.000,2005-01-02 18:48:40
85790,Discharging,-967.2,15.31,2258.522,35.6825,2:20:16.000,2005-01-02 18:49:31
85841,Discharging,-967.2,15.3025,2272.25,35.8926,2:21:07.000,2005-01-02 18:50:22
85892,Discharging,-965.4,15.3,2285.96,36.1027,2:21:58.000,2005-01-02 18:51:13
85943,Discharging,-965.4,15.2926,2299.63,36.3128,2:22:49.000,2005-01-02 18:52:04
85994,Discharging,-967.2,15.2876,2313.27,36.5218,2:23:40.000,2005-01-02 18:52:55
86045,Discharging,-965.4,15.2802,2326.91,36.7303,2:24:31.000,2005-01-02 18:53:46
86096,Discharging,-965.4,15.2752,2340.55,36.9389,2:25:22.000,2005-01-02 18:54:37
86147,Discharging,-965.4,15.2678,2354.19,37.1474,2:26:13.000,2005-01-02 18:55:28
86198,Discharging,-967.2,15.2628,2367.83,37.3558,2:27:04.000,2005-01-02 18:56:19
86249,Discharging,-963.5,15.2579,2381.48,37.564,2:27:55.000,2005-01-02 18:57:10
86300,Discharging,-967.2,15.2504,2395.11,37.7722,2:28:46.000,2005-01-02 18:58:01
86351,Discharging,-965.4,15.243,2408.76,37.9803,2:29:37.000,2005-01-02 18:58:52
86402,Discharging,-967.2,15.238,2422.4,38.1885,2:30:28.000,2005-01-02 18:59:43
86453,Discharging,-965.4,15.2331,2436.04,38.3967,2:31:19.000,2005-01-02 19:00:34
86504,Discharging,-965.4,15.2256,2449.68,38.6048,2:32:10.000,2005-01-02 19:01:25
86555,Discharging,-963.5,15.2207,2463.32,38.813,2:33:01.000,2005-01-02 19:02:16
86606,Discharging,-967.2,15.2157,2476.96,39.0212,2:33:52.000,2005-01-02 19:03:07
86657,Discharging,-965.4,15.2058,2490.6,39.2293,2:34:43.000,2005-01-02 19:03:58
86708,Discharging,-965.4,15.2008,2504.25,39.4375,2:35:34.000,2005-01-02 19:04:49
86759,Discharging,-963.5,15.1934,2517.89,39.6457,2:36:25.000,2005-01-02 19:05:40
86810,Discharging,-965.4,15.1884,2531.53,39.8538,2:37:16.000,2005-01-02 19:06:31
86861,Discharging,-965.4,15.1835,2545.18,40.062,2:38:07.000,2005-01-02 19:07:22
86912,Discharging,-965.4,15.176,2558.83,40.2701,2:38:58.000,2005-01-02 19:08:13
86963,Discharging,-967.2,15.1711,2572.47,40.4781,2:39:49.000,2005-01-02 19:09:04
87014,Discharging,-965.4,15.1661,2586.12,40.6861,2:40:40.000,2005-01-02 19:09:55
87065,Discharging,-965.4,15.1587,2599.76,40.8942,2:41:31.000,2005-01-02 19:10:46
87116,Discharging,-965.4,15.1537,2613.41,41.1022,2:42:22.000,2005-01-02 19:11:37
87167,Discharging,-963.5,15.1488,2627.06,41.3098,2:43:13.000,2005-01-02 19:12:28
87218,Discharging,-965.4,15.1438,2640.7,41.5165,2:44:04.000,2005-01-02 19:13:19
87269,Discharging,-967.2,15.1364,2654.352,41.7232,2:44:55.000,2005-01-02 19:14:10
87320,Discharging,-965.4,15.1339,2668.02,41.9302,2:45:46.000,2005-01-02 19:15:01
87371,Discharging,-967.2,15.124,2681.73,42.1379,2:46:37.000,2005-01-02 19:15:52
87422,Discharging,-967.2,15.119,2695.462,42.3444,2:47:28.000,2005-01-02 19:16:43
87473,Discharging,-967.2,15.1116,2709.19,42.5507,2:48:19.000,2005-01-02 19:17:34
87524,Discharging,-967.2,15.1066,2722.92,42.757,2:49:10.000,2005-01-02 19:18:25
87575,Discharging,-967.2,15.0992,2736.66,42.9633,2:50:01.000,2005-01-02 19:19:16
87626,Discharging,-967.2,15.0917,2750.39,43.1695,2:50:52.000,2005-01-02 19:20:07
87677,Discharging,-967.2,15.0868,2764.118,43.3758,2:51:43.000,2005-01-02 19:20:58
87728,Discharging,-967.2,15.0818,2777.85,43.5821,2:52:34.000,2005-01-02 19:21:49
87779,Discharging,-967.2,15.0744,2791.58,43.7884,2:53:25.000,2005-01-02 19:22:40
87830,Discharging,-967.2,15.0694,2805.31,43.9946,2:54:16.000,2005-01-02 19:23:31
87881,Discharging,-967.2,15.0644,2819.05,44.2009,2:55:07.000,2005-01-02 19:24:22
87932,Discharging,-967.2,15.0595,2832.78,44.4071,2:55:58.000,2005-01-02 19:25:13
87983,Discharging,-967.2,15.052,2846.51,44.6134,2:56:49.000,2005-01-02 19:26:04
88034,Discharging,-967.2,15.0471,2860.24,44.8196,2:57:40.000,2005-01-02 19:26:55
88085,Discharging,-967.2,15.0421,2873.97,45.0258,2:58:31.000,2005-01-02 19:27:46
88136,Discharging,-967.2,15.0347,2887.7,45.232,2:59:22.000,2005-01-02 19:28:37
88187,Discharging,-967.2,15.0297,2901.43,45.43824,3:00:13.000,2005-01-02 19:29:28
88238,Discharging,-967.2,15.0248,2915.16,45.6445,3:01:04.000,2005-01-02 19:30:19
88289,Discharging,-967.2,15.0198,2928.9,45.8507,3:01:55.000,2005-01-02 19:31:10
88340,Discharging,-965.4,15.0124,2942.63,46.0569,3:02:46.000,2005-01-02 19:32:01
88391,Discharging,-967.2,15.0074,2956.36,46.2631,3:03:37.000,2005-01-02 19:32:52
88442,Discharging,-967.2,15.0024,2970.1,46.4692,3:04:28.000,2005-01-02 19:33:43
88493,Discharging,-967.2,14.9925,2983.83,46.6753,3:05:19.000,2005-01-02 19:34:34
88544,Discharging,-967.2,14.9875,2997.56,46.8814,3:06:10.000,2005-01-02 19:35:25
88595,Discharging,-967.2,14.9801,3011.29,47.0875,3:07:01.000,2005-01-02 19:36:16
88646,Discharging,-967.2,14.9751,3025.02,47.2926,3:07:52.000,2005-01-02 19:37:07
88697,Discharging,-967.2,14.9702,3038.75,47.497,3:08:43.000,2005-01-02 19:37:58
88748,Discharging,-967.2,14.9652,3052.49,47.7013,3:09:34.000,2005-01-02 19:38:49
88799,Discharging,-965.4,14.9627,3066.19,47.9057,3:10:25.000,2005-01-02 19:39:40
88850,Discharging,-965.4,14.9553,3079.86,48.11,3:11:16.000,2005-01-02 19:40:31
88901,Discharging,-965.4,14.9503,3093.5,48.3142,3:12:07.000,2005-01-02 19:41:22
88952,Discharging,-967.2,14.9454,3107.15,48.5185,3:12:58.000,2005-01-02 19:42:13
89003,Discharging,-965.4,14.9379,3120.798,48.7228,3:13:49.000,2005-01-02 19:43:04
89054,Discharging,-967.2,14.933,3134.45,48.9271,3:14:40.000,2005-01-02 19:43:55
89105,Discharging,-965.4,14.928,3148.096,49.1313,3:15:31.000,2005-01-02 19:44:46
89156,Discharging,-965.4,14.9206,3161.742,49.3356,3:16:22.000,2005-01-02 19:45:37
89207,Discharging,-965.4,14.9156,3175.39,49.5399,3:17:13.000,2005-01-02 19:46:28
89258,Discharging,-965.4,14.9107,3189.04,49.7442,3:18:04.000,2005-01-02 19:47:19
89309,Discharging,-965.4,14.9032,3202.69,49.9484,3:18:55.000,2005-01-02 19:48:10
89360,Discharging,-965.4,14.8983,3216.34,50.1527,3:19:46.000,2005-01-02 19:49:01
89411,Discharging,-965.4,14.8908,3229.988,50.3569,3:20:37.000,2005-01-02 19:49:52
89462,Discharging,-967.2,14.8834,3243.64,50.5611,3:21:28.000,2005-01-02 19:50:43
89513,Discharging,-965.4,14.8784,3257.29,50.7653,3:22:19.000,2005-01-02 19:51:34
89564,Discharging,-965.4,14.8735,3270.938,50.9695,3:23:10.000,2005-01-02 19:52:25
89615,Discharging,-967.2,14.8685,3284.596,51.1737,3:24:01.000,2005-01-02 19:53:16
89666,Discharging,-965.4,14.8611,3298.25,51.3772,3:24:52.000,2005-01-02 19:54:07
89717,Discharging,-967.2,14.8561,3311.9,51.5801,3:25:43.000,2005-01-02 19:54:58
89768,Discharging,-967.2,14.8511,3325.56,51.783,3:26:34.000,2005-01-02 19:55:49
89819,Discharging,-967.2,14.8437,3339.21,51.9859,3:27:25.000,2005-01-02 19:56:40
89870,Discharging,-967.2,14.8387,3352.87,52.1889,3:28:16.000,2005-01-02 19:57:31
89921,Discharging,-965.4,14.8338,3366.53,52.3914,3:29:07.000,2005-01-02 19:58:22
89972,Discharging,-965.4,14.8288,3380.18,52.5937,3:29:58.000,2005-01-02 19:59:13
90023,Discharging,-965.4,14.8214,3393.84,52.796,3:30:49.000,2005-01-02 20:00:04
90074,Discharging,-965.4,14.8164,3407.49,52.9984,3:31:40.000,2005-01-02 20:00:55
90125,Discharging,-965.4,14.809,3421.15,53.2007,3:32:31.000,2005-01-02 20:01:46
90176,Discharging,-965.4,14.804,3434.81,53.403,3:33:22.000,2005-01-02 20:02:37
90227,Discharging,-965.4,14.7991,3448.51,53.60544,3:34:13.000,2005-01-02 20:03:28
90278,Discharging,-967.2,14.7916,3462.23,53.8078,3:35:04.000,2005-01-02 20:04:19
90329,Discharging,-967.2,14.7817,3475.97,54.0103,3:35:55.000,2005-01-02 20:05:10
90380,Discharging,-967.2,14.7767,3489.7,54.2126,3:36:46.000,2005-01-02 20:06:01
90431,Discharging,-967.2,14.7718,3503.44,54.415,3:37:37.000,2005-01-02 20:06:52
90482,Discharging,-967.2,14.7643,3517.17,54.6173,3:38:28.000,2005-01-02 20:07:43
90533,Discharging,-967.2,14.7594,3530.91,54.8196,3:39:19.000,2005-01-02 20:08:34
90584,Discharging,-967.2,14.7544,3544.642,55.022,3:40:10.000,2005-01-02 20:09:25
90635,Discharging,-967.2,14.7495,3558.37,55.2243,3:41:01.000,2005-01-02 20:10:16
90686,Discharging,-967.2,14.742,3572.11,55.4266,3:41:52.000,2005-01-02 20:11:07
90737,Discharging,-967.2,14.7371,3585.85,55.629,3:42:43.000,2005-01-02 20:11:58
90788,Discharging,-967.2,14.7296,3599.58,55.8313,3:43:34.000,2005-01-02 20:12:49
90839,Discharging,-967.2,14.7247,3613.32,56.0336,3:44:25.000,2005-01-02 20:13:40
90890,Discharging,-967.2,14.7197,3627.05,56.2359,3:45:16.000,2005-01-02 20:14:31
90941,Discharging,-967.2,14.7147,3640.788,56.4381,3:46:07.000,2005-01-02 20:15:22
90992,Discharging,-967.2,14.7073,3654.52,56.6403,3:46:58.000,2005-01-02 20:16:13
91043,Discharging,-967.2,14.7023,3668.26,56.8426,3:47:49.000,2005-01-02 20:17:04
91094,Discharging,-967.2,14.6974,3681.992,57.0448,3:48:40.000,2005-01-02 20:17:55
91145,Discharging,-967.2,14.6924,3695.72,57.2456,3:49:31.000,2005-01-02 20:18:46
91196,Discharging,-967.2,14.685,3709.46,57.4461,3:50:22.000,2005-01-02 20:19:37
91247,Discharging,-967.2,14.6775,3723.19,57.6466,3:51:13.000,2005-01-02 20:20:28
91298,Discharging,-967.2,14.6726,3736.93,57.8471,3:52:04.000,2005-01-02 20:21:19
91349,Discharging,-967.2,14.6676,3750.67,58.0476,3:52:55.000,2005-01-02 20:22:10
91400,Discharging,-967.2,14.6602,3764.4,58.2481,3:53:46.000,2005-01-02 20:23:01
91451,Discharging,-967.2,14.6552,3778.136,58.4486,3:54:37.000,2005-01-02 20:23:52
91502,Discharging,-967.2,14.6502,3791.87,58.6491,3:55:28.000,2005-01-02 20:24:43
91553,Discharging,-970.9,14.6453,3805.61,58.8496,3:56:19.000,2005-01-02 20:25:34
91604,Discharging,-967.2,14.6403,3819.35,59.0501,3:57:10.000,2005-01-02 20:26:25
91655,Discharging,-965.4,14.6378,3833.07,59.2505,3:58:01.000,2005-01-02 20:27:16
91706,Discharging,-965.4,14.6329,3846.78,59.4509,3:58:52.000,2005-01-02 20:28:07
91757,Discharging,-967.2,14.6279,3860.44,59.6513,3:59:43.000,2005-01-02 20:28:58
91808,Discharging,-965.4,14.6205,3874.1,59.8517,4:00:34.000,2005-01-02 20:29:49
91859,Discharging,-965.4,14.618,3887.756,60.0521,4:01:25.000,2005-01-02 20:30:40
91910,Discharging,-965.4,14.6106,3901.41,60.2524,4:02:16.000,2005-01-02 20:31:31
91961,Discharging,-965.4,14.6056,3915.07,60.4528,4:03:07.000,2005-01-02 20:32:22
92012,Discharging,-965.4,14.6006,3928.72,60.6531,4:03:58.000,2005-01-02 20:33:13
92063,Discharging,-967.2,14.5957,3942.376,60.8534,4:04:49.000,2005-01-02 20:34:04
92114,Discharging,-965.4,14.5907,3956.032,61.0537,4:05:40.000,2005-01-02 20:34:55
92165,Discharging,-965.4,14.5858,3969.688,61.254,4:06:31.000,2005-01-02 20:35:46
92216,Discharging,-965.4,14.5808,3983.35,61.4543,4:07:22.000,2005-01-02 20:36:37
92267,Discharging,-965.4,14.5734,3997.01,61.6539,4:08:13.000,2005-01-02 20:37:28
92318,Discharging,-965.4,14.5709,4010.63,61.8531,4:09:04.000,2005-01-02 20:38:19
92369,Discharging,-963.5,14.5659,4024.25,62.0523,4:09:55.000,2005-01-02 20:39:10
92420,Discharging,-965.4,14.561,4037.87,62.2515,4:10:46.000,2005-01-02 20:40:01
92471,Discharging,-967.2,14.556,4051.49,62.4507,4:11:37.000,2005-01-02 20:40:52
92522,Discharging,-965.4,14.551,4065.112,62.6492,4:12:28.000,2005-01-02 20:41:43
92573,Discharging,-967.2,14.5461,4078.73,62.8477,4:13:19.000,2005-01-02 20:42:34
92624,Discharging,-965.4,14.5411,4092.35,63.0461,4:14:10.000,2005-01-02 20:43:25
92675,Discharging,-967.2,14.5362,4105.97,63.2445,4:15:01.000,2005-01-02 20:44:16
92726,Discharging,-965.4,14.5312,4119.59,63.443,4:15:52.000,2005-01-02 20:45:07
92777,Discharging,-967.2,14.5262,4133.21,63.6415,4:16:43.000,2005-01-02 20:45:58
92828,Discharging,-965.4,14.5238,4146.83,63.8399,4:17:34.000,2005-01-02 20:46:49
92879,Discharging,-965.4,14.5188,4160.448,64.0384,4:18:25.000,2005-01-02 20:47:40
92930,Discharging,-967.2,14.5138,4174.07,64.2368,4:19:16.000,2005-01-02 20:48:31
92981,Discharging,-965.4,14.5114,4187.69,64.4352,4:20:07.000,2005-01-02 20:49:22
93032,Discharging,-965.4,14.5064,4201.31,64.6337,4:20:58.000,2005-01-02 20:50:13
93083,Discharging,-965.4,14.5014,4214.93,64.8321,4:21:49.000,2005-01-02 20:51:04
93134,Discharging,-967.2,14.494,4228.56,65.0306,4:22:40.000,2005-01-02 20:51:55
93185,Discharging,-967.2,14.489,4242.2,65.229,4:23:31.000,2005-01-02 20:52:46
93236,Discharging,-967.2,14.4866,4255.84,65.4274,4:24:22.000,2005-01-02 20:53:37
93287,Discharging,-967.2,14.4816,4269.48,65.6259,4:25:13.000,2005-01-02 20:54:28
93338,Discharging,-967.2,14.4766,4283.12,65.82432,4:26:04.000,2005-01-02 20:55:19
93389,Discharging,-967.2,14.4692,4296.752,66.0228,4:26:55.000,2005-01-02 20:56:10
93440,Discharging,-967.2,14.4667,4310.4,66.2212,4:27:46.000,2005-01-02 20:57:01
93491,Discharging,-967.2,14.4618,4324.04,66.4196,4:28:37.000,2005-01-02 20:57:52
93542,Discharging,-967.2,14.4568,4337.68,66.6181,4:29:28.000,2005-01-02 20:58:43
93593,Discharging,-967.2,14.4543,4351.33,66.8165,4:30:19.000,2005-01-02 20:59:34
93644,Discharging,-967.2,14.4494,4364.98,67.015,4:31:10.000,2005-01-02 21:00:25
93695,Discharging,-967.2,14.4469,4378.62,67.2134,4:32:01.000,2005-01-02 21:01:16
93746,Discharging,-967.2,14.4419,4392.27,67.41184,4:32:52.000,2005-01-02 21:02:07
93797,Discharging,-967.2,14.437,4405.92,67.6103,4:33:43.000,2005-01-02 21:02:58
93848,Discharging,-967.2,14.4345,4419.56,67.8087,4:34:34.000,2005-01-02 21:03:49
93899,Discharging,-967.2,14.4295,4433.21,68.0072,4:35:25.000,2005-01-02 21:04:40
93950,Discharging,-967.2,14.4246,4446.85,68.2056,4:36:16.000,2005-01-02 21:05:31
94001,Discharging,-967.2,14.4221,4460.5,68.404,4:37:07.000,2005-01-02 21:06:22
94052,Discharging,-967.2,14.4171,4474.15,68.6025,4:37:58.000,2005-01-02 21:07:13
94103,Discharging,-967.2,14.4146,4487.796,68.8009,4:38:49.000,2005-01-02 21:08:04
94154,Discharging,-967.2,14.4097,4501.44,68.9994,4:39:40.000,2005-01-02 21:08:55
94205,Discharging,-967.2,14.4072,4515.09,69.1978,4:40:31.000,2005-01-02 21:09:46
94256,Discharging,-967.2,14.4022,4528.73,69.3963,4:41:22.000,2005-01-02 21:10:37
94307,Discharging,-965.4,14.3998,4542.37,69.5947,4:42:13.000,2005-01-02 21:11:28
94358,Discharging,-967.2,14.3948,4556.01,69.7931,4:43:04.000,2005-01-02 21:12:19
94409,Discharging,-970.9,14.3923,4569.66,69.9916,4:43:55.000,2005-01-02 21:13:10
94460,Discharging,-970.9,14.3874,4583.3,70.19,4:44:46.000,2005-01-02 21:14:01
94511,Discharging,-967.2,14.3849,4596.95,70.3885,4:45:37.000,2005-01-02 21:14:52
94562,Discharging,-965.4,14.3824,4610.59,70.5869,4:46:28.000,2005-01-02 21:15:43
94613,Discharging,-965.4,14.3799,4624.23,70.7853,4:47:19.000,2005-01-02 21:16:34
94664,Discharging,-967.2,14.3774,4637.85,70.9835,4:48:10.000,2005-01-02 21:17:25
94715,Discharging,-967.2,14.3725,4651.47,71.1818,4:49:01.000,2005-01-02 21:18:16
94766,Discharging,-965.4,14.37,4665.09,71.3801,4:49:52.000,2005-01-02 21:19:07
94817,Discharging,-965.4,14.3625,4678.71,71.5764,4:50:43.000,2005-01-02 21:19:58
94868,Discharging,-965.4,14.3601,4692.33,71.7721,4:51:34.000,2005-01-02 21:20:49
94919,Discharging,-967.2,14.3551,4705.95,71.9681,4:52:25.000,2005-01-02 21:21:40
94970,Discharging,-965.4,14.3526,4719.57,72.164,4:53:16.000,2005-01-02 21:22:31
95021,Discharging,-963.5,14.3501,4733.19,72.3599,4:54:07.000,2005-01-02 21:23:22
95072,Discharging,-967.2,14.3452,4746.81,72.556,4:54:58.000,2005-01-02 21:24:13
95123,Discharging,-967.2,14.3427,4760.43,72.752,4:55:49.000,2005-01-02 21:25:04
95174,Discharging,-965.4,14.3402,4774.05,72.9471,4:56:40.000,2005-01-02 21:25:55
95225,Discharging,-967.2,14.3377,4787.67,73.1416,4:57:31.000,2005-01-02 21:26:46
95276,Discharging,-963.5,14.3353,4801.29,73.3362,4:58:22.000,2005-01-02 21:27:37
95327,Discharging,-965.4,14.3303,4814.9,73.5308,4:59:13.000,2005-01-02 21:28:28
95378,Discharging,-965.4,14.3278,4828.52,73.7253,5:00:04.000,2005-01-02 21:29:19
95429,Discharging,-965.4,14.3253,4842.15,73.9199,5:00:55.000,2005-01-02 21:30:10
95480,Discharging,-965.4,14.3204,4855.77,74.1145,5:01:46.000,2005-01-02 21:31:01
95531,Discharging,-965.4,14.3179,4869.39,74.3091,5:02:37.000,2005-01-02 21:31:52
95582,Discharging,-965.4,14.3129,4883,74.5036,5:03:28.000,2005-01-02 21:32:43
95633,Discharging,-965.4,14.3105,4896.62,74.6982,5:04:19.000,2005-01-02 21:33:34
95684,Discharging,-965.4,14.3055,4910.24,74.8928,5:05:10.000,2005-01-02 21:34:25
95735,Discharging,-965.4,14.303,4923.87,75.0874,5:06:01.000,2005-01-02 21:35:16
95786,Discharging,-965.4,14.3005,4937.49,75.282,5:06:52.000,2005-01-02 21:36:07
95837,Discharging,-967.2,14.2956,4951.11,75.4765,5:07:43.000,2005-01-02 21:36:58
95888,Discharging,-965.4,14.2931,4964.73,75.6711,5:08:34.000,2005-01-02 21:37:49
95939,Discharging,-965.4,14.2881,4978.35,75.8657,5:09:25.000,2005-01-02 21:38:40
95990,Discharging,-965.4,14.2857,4991.97,76.0604,5:10:16.000,2005-01-02 21:39:31
96041,Discharging,-967.2,14.2807,5005.62,76.2549,5:11:07.000,2005-01-02 21:40:22
96092,Discharging,-967.2,14.2757,5019.25,76.4495,5:11:58.000,2005-01-02 21:41:13
96143,Discharging,-970.9,14.2733,5032.9,76.6441,5:12:49.000,2005-01-02 21:42:04
96194,Discharging,-967.2,14.2658,5046.54,76.8386,5:13:40.000,2005-01-02 21:42:55
96245,Discharging,-967.2,14.2633,5060.19,77.0331,5:14:31.000,2005-01-02 21:43:46
96296,Discharging,-967.2,14.2584,5073.83,77.2277,5:15:22.000,2005-01-02 21:44:37
96347,Discharging,-967.2,14.2534,5087.48,77.4223,5:16:13.000,2005-01-02 21:45:28
96398,Discharging,-967.2,14.2509,5101.12,77.6168,5:17:04.000,2005-01-02 21:46:19
96449,Discharging,-970.9,14.2485,5114.76,77.8113,5:17:55.000,2005-01-02 21:47:10
96500,Discharging,-967.2,14.2435,5128.4,78.0059,5:18:46.000,2005-01-02 21:48:01
96551,Discharging,-967.2,14.241,5142.05,78.2005,5:19:37.000,2005-01-02 21:48:52
96602,Discharging,-967.2,14.2361,5155.7,78.395,5:20:28.000,2005-01-02 21:49:43
96653,Discharging,-967.2,14.2311,5169.34,78.5895,5:21:19.000,2005-01-02 21:50:34
96704,Discharging,-967.2,14.2286,5182.99,78.7841,5:22:10.000,2005-01-02 21:51:25
96755,Discharging,-967.2,14.2237,5196.64,78.9786,5:23:01.000,2005-01-02 21:52:16
96806,Discharging,-967.2,14.2212,5210.29,79.1732,5:23:52.000,2005-01-02 21:53:07
96857,Discharging,-967.2,14.2162,5223.93,79.3677,5:24:43.000,2005-01-02 21:53:58
96908,Discharging,-967.2,14.2113,5237.58,79.5623,5:25:34.000,2005-01-02 21:54:49
96959,Discharging,-967.2,14.2088,5251.23,79.7568,5:26:25.000,2005-01-02 21:55:40
97010,Discharging,-967.2,14.2038,5264.87,79.9514,5:27:16.000,2005-01-02 21:56:31
97061,Discharging,-970.9,14.1989,5278.52,80.1459,5:28:07.000,2005-01-02 21:57:22
97112,Discharging,-970.9,14.1964,5292.17,80.3405,5:28:58.000,2005-01-02 21:58:13
97163,Discharging,-967.2,14.1914,5305.81,80.53504,5:29:49.000,2005-01-02 21:59:04
97214,Discharging,-967.2,14.1865,5319.46,80.7296,5:30:40.000,2005-01-02 21:59:55
97265,Discharging,-967.2,14.184,5333.12,80.9241,5:31:31.000,2005-01-02 22:00:46
97316,Discharging,-967.2,14.179,5346.77,81.1187,5:32:22.000,2005-01-02 22:01:37
97367,Discharging,-967.2,14.1741,5360.42,81.3132,5:33:13.000,2005-01-02 22:02:28
97418,Discharging,-967.2,14.1691,5374.07,81.5078,5:34:04.000,2005-01-02 22:03:19
97469,Discharging,-967.2,14.1691,5387.72,81.7023,5:34:55.000,2005-01-02 22:04:10
97520,Discharging,-965.4,14.1617,5401.35,81.8969,5:35:46.000,2005-01-02 22:05:01
97571,Discharging,-965.4,14.1567,5414.97,82.0914,5:36:37.000,2005-01-02 22:05:52
97622,Discharging,-965.4,14.1517,5428.59,82.286,5:37:28.000,2005-01-02 22:06:43
97673,Discharging,-967.2,14.1468,5442.21,82.4805,5:38:19.000,2005-01-02 22:07:34
97724,Discharging,-965.4,14.1418,5455.836,82.6751,5:39:10.000,2005-01-02 22:08:25
97775,Discharging,-967.2,14.1393,5469.46,82.8696,5:40:01.000,2005-01-02 22:09:16
97826,Discharging,-965.4,14.1344,5483.08,83.0642,5:40:52.000,2005-01-02 22:10:07
97877,Discharging,-965.4,14.1294,5496.7,83.2587,5:41:43.000,2005-01-02 22:10:58
97928,Discharging,-967.2,14.1245,5510.32,83.4533,5:42:34.000,2005-01-02 22:11:49
97979,Discharging,-965.4,14.1195,5523.94,83.6478,5:43:25.000,2005-01-02 22:12:40
98030,Discharging,-967.2,14.1145,5537.56,83.8424,5:44:16.000,2005-01-02 22:13:31
98081,Discharging,-967.2,14.1096,5551.18,84.0369,5:45:07.000,2005-01-02 22:14:22
98132,Discharging,-965.4,14.1046,5564.8,84.2314,5:45:58.000,2005-01-02 22:15:13
98183,Discharging,-965.4,14.0997,5578.42,84.4258,5:46:49.000,2005-01-02 22:16:04
98234,Discharging,-967.2,14.0947,5592.04,84.6202,5:47:40.000,2005-01-02 22:16:55
98285,Discharging,-965.4,14.0897,5605.66,84.8147,5:48:31.000,2005-01-02 22:17:46
98336,Discharging,-967.2,14.0848,5619.29,85.0091,5:49:22.000,2005-01-02 22:18:37
98387,Discharging,-967.2,14.0773,5632.91,85.2015,5:50:13.000,2005-01-02 22:19:28
98438,Discharging,-967.2,14.0724,5646.53,85.3939,5:51:04.000,2005-01-02 22:20:19
98489,Discharging,-965.4,14.0674,5660.15,85.5862,5:51:55.000,2005-01-02 22:21:10
98540,Discharging,-967.2,14.06,5673.77,85.7786,5:52:46.000,2005-01-02 22:22:01
98591,Discharging,-967.2,14.055,5687.39,85.9701,5:53:37.000,2005-01-02 22:22:52
98642,Discharging,-967.2,14.0476,5701.01,86.1608,5:54:28.000,2005-01-02 22:23:43
98693,Discharging,-965.4,14.0426,5714.63,86.3515,5:55:19.000,2005-01-02 22:24:34
98744,Discharging,-965.4,14.0352,5728.26,86.5422,5:56:10.000,2005-01-02 22:25:25
98795,Discharging,-967.2,14.0302,5741.88,86.7329,5:57:01.000,2005-01-02 22:26:16
98846,Discharging,-965.4,14.0252,5755.5,86.9236,5:57:52.000,2005-01-02 22:27:07
98897,Discharging,-967.2,14.0203,5769.12,87.1143,5:58:43.000,2005-01-02 22:27:58
98948,Discharging,-967.2,14.0079,5782.76,87.3054,5:59:34.000,2005-01-02 22:28:49
98999,Discharging,-967.2,14.0029,5796.4,87.4963,6:00:25.000,2005-01-02 22:29:40
99050,Discharging,-967.2,13.9955,5810.06,87.6869,6:01:16.000,2005-01-02 22:30:31
99101,Discharging,-967.2,13.988,5823.71,87.8776,6:02:07.000,2005-01-02 22:31:22
99152,Discharging,-967.2,13.9831,5837.36,88.0683,6:02:58.000,2005-01-02 22:32:13
99203,Discharging,-967.2,13.9756,5851,88.2589,6:03:49.000,2005-01-02 22:33:04
99254,Discharging,-967.2,13.9682,5864.648,88.4496,6:04:40.000,2005-01-02 22:33:55
99305,Discharging,-967.2,13.9608,5878.29,88.6402,6:05:31.000,2005-01-02 22:34:46
99356,Discharging,-967.2,13.9533,5891.93,88.8309,6:06:22.000,2005-01-02 22:35:37
99407,Discharging,-967.2,13.9459,5905.58,89.0216,6:07:13.000,2005-01-02 22:36:28
99458,Discharging,-967.2,13.9384,5919.22,89.2122,6:08:04.000,2005-01-02 22:37:19
99509,Discharging,-967.2,13.931,5932.86,89.4029,6:08:55.000,2005-01-02 22:38:10
99560,Discharging,-967.2,13.9236,5946.49,89.5935,6:09:46.000,2005-01-02 22:39:01
99611,Discharging,-967.2,13.9161,5960.14,89.7842,6:10:37.000,2005-01-02 22:39:52
99662,Discharging,-967.2,13.9112,5973.77,89.9748,6:11:28.000,2005-01-02 22:40:43
99713,Discharging,-967.2,13.9037,5987.42,90.1655,6:12:19.000,2005-01-02 22:41:34
99764,Discharging,-967.2,13.8963,6001.06,90.35616,6:13:10.000,2005-01-02 22:42:25
99815,Discharging,-967.2,13.8888,6014.71,90.5468,6:14:01.000,2005-01-02 22:43:16
99866,Discharging,-967.2,13.8814,6028.356,90.7375,6:14:52.000,2005-01-02 22:44:07
99917,Discharging,-967.2,13.8764,6042,90.9281,6:15:43.000,2005-01-02 22:44:58
99968,Discharging,-967.2,13.869,6055.64,91.1188,6:16:34.000,2005-01-02 22:45:49
100019,Discharging,-967.2,13.8616,6069.28,91.3094,6:17:25.000,2005-01-02 22:46:40
100070,Discharging,-967.2,13.8566,6082.92,91.5001,6:18:16.000,2005-01-02 22:47:31
100121,Discharging,-967.2,13.8467,6096.57,91.6908,6:19:07.000,2005-01-02 22:48:22
100172,Discharging,-967.2,13.8417,6110.208,91.8814,6:19:58.000,2005-01-02 22:49:13
100223,Discharging,-967.2,13.8343,6123.848,92.0721,6:20:49.000,2005-01-02 22:50:04
100274,Discharging,-967.2,13.8293,6137.49,92.2628,6:21:40.000,2005-01-02 22:50:55
100325,Discharging,-967.2,13.8244,6151.13,92.4534,6:22:31.000,2005-01-02 22:51:46
100376,Discharging,-967.2,13.8219,6164.76,92.6441,6:23:22.000,2005-01-02 22:52:37
100427,Discharging,-965.4,13.8169,6178.39,92.8347,6:24:13.000,2005-01-02 22:53:28
100478,Discharging,-965.4,13.812,6192.01,93.0251,6:25:04.000,2005-01-02 22:54:19
100529,Discharging,-965.4,13.807,6205.63,93.2156,6:25:55.000,2005-01-02 22:55:10
100580,Discharging,-965.4,13.8045,6219.25,93.4061,6:26:46.000,2005-01-02 22:56:01
100631,Discharging,-965.4,13.7996,6232.87,93.5966,6:27:37.000,2005-01-02 22:56:52
100682,Discharging,-965.4,13.7946,6246.49,93.7857,6:28:28.000,2005-01-02 22:57:43
100733,Discharging,-967.2,13.7921,6260.112,93.9741,6:29:19.000,2005-01-02 22:58:34
100784,Discharging,-965.4,13.7872,6273.73,94.1623,6:30:10.000,2005-01-02 22:59:25
100835,Discharging,-965.4,13.7847,6287.35,94.3504,6:31:01.000,2005-01-02 23:00:16
100886,Discharging,-965.4,13.7797,6300.97,94.5386,6:31:52.000,2005-01-02 23:01:07
100937,Discharging,-965.4,13.7748,6314.59,94.7269,6:32:43.000,2005-01-02 23:01:58
100988,Discharging,-965.4,13.7698,6328.21,94.9143,6:33:34.000,2005-01-02 23:02:49
101039,Discharging,-965.4,13.7673,6341.83,95.1011,6:34:25.000,2005-01-02 23:03:40
101090,Discharging,-967.2,13.7624,6355.45,95.2879,6:35:16.000,2005-01-02 23:04:31
101141,Discharging,-965.4,13.7574,6369.07,95.4747,6:36:07.000,2005-01-02 23:05:22
101192,Discharging,-967.2,13.7549,6382.69,95.6615,6:36:58.000,2005-01-02 23:06:13
101243,Discharging,-965.4,13.7475,6396.312,95.8483,6:37:49.000,2005-01-02 23:07:04
101294,Discharging,-967.2,13.7425,6409.93,96.0351,6:38:40.000,2005-01-02 23:07:55
101345,Discharging,-965.4,13.74,6423.55,96.2219,6:39:31.000,2005-01-02 23:08:46
101396,Discharging,-965.4,13.7351,6437.17,96.4087,6:40:22.000,2005-01-02 23:09:37
101447,Discharging,-965.4,13.7301,6450.79,96.5955,6:41:13.000,2005-01-02 23:10:28
101498,Discharging,-967.2,13.7251,6464.41,96.7823,6:42:04.000,2005-01-02 23:11:19
101549,Discharging,-965.4,13.7227,6478.03,96.9691,6:42:55.000,2005-01-02 23:12:10
101600,Discharging,-967.2,13.7177,6491.66,97.15584,6:43:46.000,2005-01-02 23:13:01
101651,Discharging,-967.2,13.7127,6505.28,97.3426,6:44:37.000,2005-01-02 23:13:52
101702,Discharging,-965.4,13.7078,6518.9,97.5294,6:45:28.000,2005-01-02 23:14:43
101753,Discharging,-965.4,13.7028,6532.51,97.7161,6:46:19.000,2005-01-02 23:15:34
101804,Discharging,-967.2,13.7003,6546.14,97.9029,6:47:10.000,2005-01-02 23:16:25
101855,Discharging,-967.2,13.6929,6559.78,98.0897,6:48:01.000,2005-01-02 23:17:16
101906,Discharging,-967.2,13.6879,6573.43,98.2765,6:48:52.000,2005-01-02 23:18:07
101957,Discharging,-967.2,13.683,6587.08,98.4632,6:49:43.000,2005-01-02 23:18:58
102008,Discharging,-967.2,13.678,6600.72,98.65,6:50:34.000,2005-01-02 23:19:49
102059,Discharging,-967.2,13.6731,6614.37,98.8368,6:51:25.000,2005-01-02 23:20:40
102110,Discharging,-967.2,13.6656,6628.02,99.0235,6:52:16.000,2005-01-02 23:21:31
102161,Discharging,-967.2,13.6607,6641.67,99.2103,6:53:07.000,2005-01-02 23:22:22
102212,Discharging,-967.2,13.6557,6655.31,99.3971,6:53:58.000,2005-01-02 23:23:13
102263,Discharging,-967.2,13.6507,6668.95,99.5838,6:54:49.000,2005-01-02 23:24:04
102314,Discharging,-967.2,13.6433,6682.59,99.7706,6:55:40.000,2005-01-02 23:24:55
102365,Discharging,-967.2,13.6383,6696.24,99.9574,6:56:31.000,2005-01-02 23:25:46
102416,Discharging,-967.2,13.6309,6709.88,100.144,6:57:22.000,2005-01-02 23:26:37
102467,Discharging,-967.2,13.6259,6723.52,100.331,6:58:13.000,2005-01-02 23:27:28
102518,Discharging,-970.9,13.621,6737.17,100.518,6:59:04.000,2005-01-02 23:28:19
102569,Discharging,-967.2,13.6135,6750.82,100.704,6:59:55.000,2005-01-02 23:29:10
102620,Discharging,-967.2,13.6061,6764.46,100.8912,7:00:46.000,2005-01-02 23:30:01
102671,Discharging,-967.2,13.6011,6778.11,101.078,7:01:37.000,2005-01-02 23:30:52
102722,Discharging,-967.2,13.5912,6791.75,101.265,7:02:28.000,2005-01-02 23:31:43
102773,Discharging,-967.2,13.5838,6805.4,101.452,7:03:19.000,2005-01-02 23:32:34
102824,Discharging,-967.2,13.5763,6819.05,101.638,7:04:10.000,2005-01-02 23:33:25
102875,Discharging,-967.2,13.5664,6832.7,101.825,7:05:01.000,2005-01-02 23:34:16
102926,Discharging,-967.2,13.5565,6846.34,102.012,7:05:52.000,2005-01-02 23:35:07
102977,Discharging,-970.9,13.5466,6859.98,102.199,7:06:43.000,2005-01-02 23:35:58
103028,Discharging,-967.2,13.5317,6873.62,102.385,7:07:34.000,2005-01-02 23:36:49
103079,Discharging,-967.2,13.5218,6887.27,102.572,7:08:25.000,2005-01-02 23:37:40
103130,Discharging,-967.2,13.5094,6900.92,102.759,7:09:16.000,2005-01-02 23:38:31
103181,Discharging,-967.2,13.4945,6914.57,102.946,7:10:07.000,2005-01-02 23:39:22
103232,Discharging,-967.2,13.4821,6928.22,103.131,7:10:58.000,2005-01-02 23:40:13
103283,Discharging,-967.2,13.4722,6941.86,103.314,7:11:49.000,2005-01-02 23:41:04
103334,Discharging,-965.4,13.4598,6955.49,103.497,7:12:40.000,2005-01-02 23:41:55
103385,Discharging,-965.4,13.4474,6969.11,103.68,7:13:31.000,2005-01-02 23:42:46
103436,Discharging,-965.4,13.435,6982.73,103.863,7:14:22.000,2005-01-02 23:43:37
103487,Discharging,-965.4,13.4226,6996.35,104.046,7:15:13.000,2005-01-02 23:44:28
103538,Discharging,-965.4,13.4126,7009.97,104.228,7:16:04.000,2005-01-02 23:45:19
103589,Discharging,-967.2,13.4002,7023.59,104.411,7:16:55.000,2005-01-02 23:46:10
103640,Discharging,-965.4,13.3878,7037.21,104.594,7:17:46.000,2005-01-02 23:47:01
103691,Discharging,-967.2,13.3754,7050.83,104.777,7:18:37.000,2005-01-02 23:47:52
103742,Discharging,-967.2,13.3655,7064.45,104.96,7:19:28.000,2005-01-02 23:48:43
103793,Discharging,-965.4,13.3531,7078.07,105.143,7:20:19.000,2005-01-02 23:49:34
103844,Discharging,-965.4,13.3407,7091.69,105.326,7:21:10.000,2005-01-02 23:50:25
103895,Discharging,-965.4,13.3258,7105.31,105.509,7:22:01.000,2005-01-02 23:51:16
103946,Discharging,-967.2,13.3134,7118.93,105.691,7:22:52.000,2005-01-02 23:52:07
103997,Discharging,-967.2,13.2986,7132.55,105.874,7:23:43.000,2005-01-02 23:52:58
104048,Discharging,-965.4,13.2862,7146.168,106.057,7:24:34.000,2005-01-02 23:53:49
104099,Discharging,-965.4,13.2738,7159.79,106.24,7:25:25.000,2005-01-02 23:54:40
104150,Discharging,-967.2,13.2589,7173.41,106.423,7:26:16.000,2005-01-02 23:55:31
104201,Discharging,-967.2,13.2465,7187.03,106.606,7:27:07.000,2005-01-02 23:56:22
104252,Discharging,-967.2,13.2291,7200.65,106.788,7:27:58.000,2005-01-02 23:57:13
104303,Discharging,-965.4,13.2167,7214.27,106.969,7:28:49.000,2005-01-02 23:58:04
104354,Discharging,-965.4,13.2018,7227.89,107.149,7:29:40.000,2005-01-02 23:58:55
104405,Discharging,-967.2,13.187,7241.51,107.328,7:30:31.000,2005-01-02 23:59:46
104456,Discharging,-967.2,13.1721,7255.13,107.507,7:31:22.000,2005-01-03 00:00:37
104507,Discharging,-965.4,13.1572,7268.75,107.686,7:32:13.000,2005-01-03 00:01:28
104558,Discharging,-967.2,13.1423,7282.37,107.865,7:33:04.000,2005-01-03 00:02:19
104609,Discharging,-970.9,13.125,7295.99,108.044,7:33:55.000,2005-01-03 00:03:10
104660,Discharging,-967.2,13.1101,7309.61,108.223,7:34:46.000,2005-01-03 00:04:01
104711,Discharging,-967.2,13.0952,7323.232,108.402,7:35:37.000,2005-01-03 00:04:52
104762,Discharging,-967.2,13.0753,7336.87,108.581,7:36:28.000,2005-01-03 00:05:43
104813,Discharging,-967.2,13.058,7350.51,108.76,7:37:19.000,2005-01-03 00:06:34
104864,Discharging,-967.2,13.0406,7364.15,108.939,7:38:10.000,2005-01-03 00:07:25
104915,Discharging,-965.4,13.0208,7377.79,109.118,7:39:01.000,2005-01-03 00:08:16
104966,Discharging,-967.2,13.0034,7391.44,109.297,7:39:52.000,2005-01-03 00:09:07
105017,Discharging,-967.2,12.9836,7405.08,109.476,7:40:43.000,2005-01-03 00:09:58
105068,Discharging,-967.2,12.9662,7418.72,109.655,7:41:34.000,2005-01-03 00:10:49
105119,Discharging,-967.2,12.9489,7432.36,109.834,7:42:25.000,2005-01-03 00:11:40
105170,Discharging,-967.2,12.929,7446,110.013,7:43:16.000,2005-01-03 00:12:31
105221,Discharging,-967.2,12.9092,7459.64,110.19,7:44:07.000,2005-01-03 00:13:22
105272,Discharging,-967.2,12.8893,7473.28,110.365,7:44:58.000,2005-01-03 00:14:13
105323,Discharging,-967.2,12.8695,7486.92,110.54,7:45:49.000,2005-01-03 00:15:04
105374,Discharging,-967.2,12.8497,7500.56,110.716,7:46:40.000,2005-01-03 00:15:55
105425,Discharging,-967.2,12.8298,7514.2,110.891,7:47:31.000,2005-01-03 00:16:46
105476,Discharging,-967.2,12.8075,7527.84,111.066,7:48:22.000,2005-01-03 00:17:37
105527,Discharging,-967.2,12.7876,7541.48,111.241,7:49:13.000,2005-01-03 00:18:28
105578,Discharging,-967.2,12.7678,7555.13,111.416,7:50:04.000,2005-01-03 00:19:19
105629,Discharging,-970.9,12.7455,7568.77,111.591,7:50:55.000,2005-01-03 00:20:10
105680,Discharging,-970.9,12.7256,7582.41,111.766,7:51:46.000,2005-01-03 00:21:01
105731,Discharging,-967.2,12.7033,7596.06,111.941,7:52:37.000,2005-01-03 00:21:52
105782,Discharging,-965.4,12.6835,7609.7,112.116,7:53:28.000,2005-01-03 00:22:43
105833,Discharging,-967.2,12.6636,7623.344,112.291,7:54:19.000,2005-01-03 00:23:34
105884,Discharging,-967.2,12.6413,7636.99,112.466,7:55:10.000,2005-01-03 00:24:25
105935,Discharging,-970.9,12.6215,7650.63,112.639,7:56:01.000,2005-01-03 00:25:16
105986,Discharging,-967.2,12.5992,7664.28,112.81,7:56:52.000,2005-01-03 00:26:07
106037,Discharging,-967.2,12.5793,7677.92,112.982,7:57:43.000,2005-01-03 00:26:58
106088,Discharging,-967.2,12.557,7691.56,113.153,7:58:34.000,2005-01-03 00:27:49
106139,Discharging,-967.2,12.5372,7705.2,113.324,7:59:25.000,2005-01-03 00:28:40
106190,Discharging,-965.4,12.5223,7718.85,113.495,8:00:16.000,2005-01-03 00:29:31
106241,Discharging,-965.4,12.4975,7732.49,113.667,8:01:07.000,2005-01-03 00:30:22
106292,Discharging,-967.2,12.4801,7746.104,113.838,8:01:58.000,2005-01-03 00:31:13
106343,Discharging,-965.4,12.4603,7759.72,114.009,8:02:49.000,2005-01-03 00:32:04
106394,Discharging,-965.4,12.4404,7773.344,114.18,8:03:40.000,2005-01-03 00:32:55
106445,Discharging,-965.4,12.4206,7786.97,114.351,8:04:31.000,2005-01-03 00:33:46
106496,Discharging,-965.4,12.3983,7800.58,114.523,8:05:22.000,2005-01-03 00:34:37
106547,Discharging,-967.2,12.3784,7814.2,114.694,8:06:13.000,2005-01-03 00:35:28
106598,Discharging,-965.4,12.3586,7827.82,114.863,8:07:04.000,2005-01-03 00:36:19
106649,Discharging,-965.4,12.3387,7841.44,115.031,8:07:55.000,2005-01-03 00:37:10
106700,Discharging,-965.4,12.3189,7855.06,115.198,8:08:46.000,2005-01-03 00:38:01
106751,Discharging,-967.2,12.2966,7868.69,115.365,8:09:37.000,2005-01-03 00:38:52
106802,Discharging,-965.4,12.2767,7882.3,115.533,8:10:28.000,2005-01-03 00:39:43
106853,Discharging,-963.5,12.2544,7895.92,115.7,8:11:19.000,2005-01-03 00:40:34
106904,Discharging,-965.4,12.2346,7909.54,115.867,8:12:10.000,2005-01-03 00:41:25
106955,Discharging,-967.2,12.2147,7923.16,116.035,8:13:01.000,2005-01-03 00:42:16
107006,Discharging,-965.4,12.1899,7936.78,116.202,8:13:52.000,2005-01-03 00:43:07
107057,Discharging,-967.2,12.1676,7950.4,116.369,8:14:43.000,2005-01-03 00:43:58
107108,Discharging,-967.2,12.1453,7964.02,116.537,8:15:34.000,2005-01-03 00:44:49
107159,Discharging,-967.2,12.123,7977.65,116.704,8:16:25.000,2005-01-03 00:45:40
107210,Discharging,-965.4,12.1006,7991.264,116.871,8:17:16.000,2005-01-03 00:46:31
107261,Discharging,-967.2,12.0734,8004.89,117.037,8:18:07.000,2005-01-03 00:47:22
107312,Discharging,-965.4,12.0486,8018.5,117.201,8:18:58.000,2005-01-03 00:48:13
107363,Discharging,-967.2,12.0262,8032.12,117.364,8:19:49.000,2005-01-03 00:49:04
107414,Discharging,-930.0,12.0039,8045.7,117.527,8:20:40.000,2005-01-03 00:49:55
107465,Discharging,-818.4,12.0039,8058.02,117.675,8:21:31.000,2005-01-03 00:50:46
107516,Discharging,-738.4,12.0039,8069.08,117.808,8:22:22.000,2005-01-03 00:51:37
107567,Discharging,-664.0,12.0064,8079.02,117.927,8:23:13.000,2005-01-03 00:52:28
107618,Discharging,-604.5,12.0064,8087.99,118.035,8:24:04.000,2005-01-03 00:53:19
107669,Discharging,-524.5,12.0064,8096.07,118.132,8:24:55.000,2005-01-03 00:54:10
107720,Discharging,-474.3,12.0064,8103.13,118.217,8:25:46.000,2005-01-03 00:55:01
107771,Discharging,-429.6,12.0064,8109.55,118.294,8:26:37.000,2005-01-03 00:55:52
107822,Discharging,-388.7,12.0039,8115.34,118.363,8:27:28.000,2005-01-03 00:56:43
107873,Discharging,-353.4,12.0064,8120.608,118.427,8:28:19.000,2005-01-03 00:57:34
107924,Discharging,-321.8,12.0064,8125.4,118.484,8:29:10.000,2005-01-03 00:58:25
107975,Discharging,-293.8,12.0064,8129.78,118.536,8:30:01.000,2005-01-03 00:59:16
108026,Discharging,-267.8,12.0039,8133.73,118.584,8:30:52.000,2005-01-03 01:00:07
108077,Discharging,-245.5,12.0064,8137.36,118.628,8:31:43.000,2005-01-03 01:00:58
108128,Discharging,-225.0,12.0064,8140.77,118.667,8:32:34.000,2005-01-03 01:01:49
108179,Discharging,-208.3,12.0064,8143.8,118.705,8:33:25.000,2005-01-03 01:02:40
108230,Discharging,-191.5,12.0064,8146.72,118.739,8:34:16.000,2005-01-03 01:03:31
108281,Discharging,-178.5,12.0064,8149.28,118.77,8:35:07.000,2005-01-03 01:04:22
108332,Discharging,-165.5,12.0039,8151.71,118.799,8:35:58.000,2005-01-03 01:05:13
108383,Discharging,-154.3,12.0064,8154.06,118.827,8:36:49.000,2005-01-03 01:06:04
108434,Discharging,-145.0,12.0064,8156.01,118.852,8:37:40.000,2005-01-03 01:06:55
108485,Discharging,-133.9,12.0064,8157.95,118.876,8:38:31.000,2005-01-03 01:07:46
108536,Discharging,-126.4,12.0064,8159.9,118.899,8:39:22.000,2005-01-03 01:08:37
108587,Discharging,-117.1,12.0064,8161.72,118.919,8:40:13.000,2005-01-03 01:09:28
108638,Discharging,-113.4,12.0064,8163.18,118.939,8:41:04.000,2005-01-03 01:10:19
108689,Discharging,-106.0,12.0064,8164.64,118.958,8:41:55.000,2005-01-03 01:11:10
108721,Discharging,-102.3,12.0064,8165.55,118.969,8:42:27.000,2005-01-03 01:11:42